"trial_type","trial_index","time_elapsed","internal_node_id","subject","prolID","condition","age","sexual","weight","height","gender","ethnicity","mental_check","educ_l","educ_c","mental","mentdrug","mentpos","soc_1","soc_2","soc_3","soc_4","soc_5","TV01","DEV01","LAP01","PHO01","TAB01","TV02","DEV02","LAP02","PHO02","TAB02","TV03","DEV03","LAP03","PHO03","TAB03","WEDSEC","WNISEC","WKNSEC","sesparent","sesstudent","sesladder","sescurrency","educ_hs","educ_ce","nfc_01","nfc_02","nfc_03","nfc_04","nfc_05","nfc_06","nfc_07","nfc_08","nfc_09","nfc_10","nfc_11","nfc_12","nfc_13","nfc_14","nfc_15","nfc_16","nfc_17","nfc_18","kirby01","kirby02","kirby03","kirby04","kirby05","kirby06","kirby07","kirby08","kirby09","kirby10","kirby11","kirby12","kirby13","kirby14","kirby15","kirby16","kirby17","kirby18","kirby19","kirby20","kirby21","s1self","chosenbody","s1selfjudge","s2selfjudge","s2self","EDEQ_1","EDEQ_2","EDEQ_3","EDEQ_4","EDEQ_5","EDEQ_6","EDEQ_7","EDEQ_8","EDEQ_9","EDEQ_10","EDEQ_11","catch1","EDEQ_12","BSQR_1","BSQR_2","BSQR_3","BSQR_4","BSQR_5","BSQR_6","BSQR_7","BSQR_8","BSQR_9","BSQR_10","BSQR_11","catch2","BSQR_12","BSQR_13","BSQR_14","BSI_1","BSI_2","BSI_3","BSI_4","BSI_5","BSI_6","BSI_7","BSI_8","catch3","BSI_9","BSI_10","BSI_11","BSI_12","BSI_13","BSI_14","BSI_15","BSI_16","BSI_17","BSI_18","debrief","rt","url","success","view_history","responses","question_order","final_value","start_value","stimulus","key_press","trial","block","freq"
"pavlovia","0","7","0.0-0.0","zh26we6crnx1vzv","60fda0fbed68b10930a7085f","1","27","heterosexual","245","6.0","Male","White or Caucasian ","No   ","Undergraduate degree ","No, currently not in school ","n/a","n/a","n/a","4","2","3","4","1","0:30","2:0","0:0","3:0","0:0","0:30","2:0","0:0","2:0","0:0","0:0","4:0","0:0","4:0","0:0","5:0","2:0","5:0","8","8","5","1","1","4","3","3","1","1","1","3","1","1","1","3","3","1","3","3","3","1","1","2","$85 in 14 days","$40 tonight","$67 tonight","$34 tonight","$15 tonight","$32 tonight","$83 tonight","$21 tonight","$48 tonight","$40 tonight","$25 tonight","$65 tonight","$55 in 10 days","$30 tonight","$53 tonight","$47 tonight","$70 in 20 days","$50 tonight","$45 tonight","$27 tonight","$16 tonight","0.5","stim/N000.png","65","65","0.599999996","2","3","2","2","2","3","0","1","0","0","0","2","1","2","0","0","1","2","2","1","3","3","1","0","1","1","0","3","0","1","0","0","1","1","0","1","0","1","0","0","0","0","1","0","0","0","0","agree","","","","","","","","","","","","",""
"external-html","1","4960","0.0-1.0","zh26we6crnx1vzv","60fda0fbed68b10930a7085f","1","27","heterosexual","245","6.0","Male","White or Caucasian ","No   ","Undergraduate degree ","No, currently not in school ","n/a","n/a","n/a","4","2","3","4","1","0:30","2:0","0:0","3:0","0:0","0:30","2:0","0:0","2:0","0:0","0:0","4:0","0:0","4:0","0:0","5:0","2:0","5:0","8","8","5","1","1","4","3","3","1","1","1","3","1","1","1","3","3","1","3","3","3","1","1","2","$85 in 14 days","$40 tonight","$67 tonight","$34 tonight","$15 tonight","$32 tonight","$83 tonight","$21 tonight","$48 tonight","$40 tonight","$25 tonight","$65 tonight","$55 in 10 days","$30 tonight","$53 tonight","$47 tonight","$70 in 20 days","$50 tonight","$45 tonight","$27 tonight","$16 tonight","0.5","stim/N000.png","65","65","0.599999996","2","3","2","2","2","3","0","1","0","0","0","2","1","2","0","0","1","2","2","1","3","3","1","0","1","1","0","3","0","1","0","0","1","1","0","1","0","1","0","0","0","0","1","0","0","0","0","agree","4828","sub/html/consent.html","","","","","","","","","","",""
"fullscreen","2","9594","0.0-2.0","zh26we6crnx1vzv","60fda0fbed68b10930a7085f","1","27","heterosexual","245","6.0","Male","White or Caucasian ","No   ","Undergraduate degree ","No, currently not in school ","n/a","n/a","n/a","4","2","3","4","1","0:30","2:0","0:0","3:0","0:0","0:30","2:0","0:0","2:0","0:0","0:0","4:0","0:0","4:0","0:0","5:0","2:0","5:0","8","8","5","1","1","4","3","3","1","1","1","3","1","1","1","3","3","1","3","3","3","1","1","2","$85 in 14 days","$40 tonight","$67 tonight","$34 tonight","$15 tonight","$32 tonight","$83 tonight","$21 tonight","$48 tonight","$40 tonight","$25 tonight","$65 tonight","$55 in 10 days","$30 tonight","$53 tonight","$47 tonight","$70 in 20 days","$50 tonight","$45 tonight","$27 tonight","$16 tonight","0.5","stim/N000.png","65","65","0.599999996","2","3","2","2","2","3","0","1","0","0","0","2","1","2","0","0","1","2","2","1","3","3","1","0","1","1","0","3","0","1","0","0","1","1","0","1","0","1","0","0","0","0","1","0","0","0","0","agree","","","true","","","","","","","","","",""
"instructions","3","13824","0.0-3.0","zh26we6crnx1vzv","60fda0fbed68b10930a7085f","1","27","heterosexual","245","6.0","Male","White or Caucasian ","No   ","Undergraduate degree ","No, currently not in school ","n/a","n/a","n/a","4","2","3","4","1","0:30","2:0","0:0","3:0","0:0","0:30","2:0","0:0","2:0","0:0","0:0","4:0","0:0","4:0","0:0","5:0","2:0","5:0","8","8","5","1","1","4","3","3","1","1","1","3","1","1","1","3","3","1","3","3","3","1","1","2","$85 in 14 days","$40 tonight","$67 tonight","$34 tonight","$15 tonight","$32 tonight","$83 tonight","$21 tonight","$48 tonight","$40 tonight","$25 tonight","$65 tonight","$55 in 10 days","$30 tonight","$53 tonight","$47 tonight","$70 in 20 days","$50 tonight","$45 tonight","$27 tonight","$16 tonight","0.5","stim/N000.png","65","65","0.599999996","2","3","2","2","2","3","0","1","0","0","0","2","1","2","0","0","1","2","2","1","3","3","1","0","1","1","0","3","0","1","0","0","1","1","0","1","0","1","0","0","0","0","1","0","0","0","0","agree","4230","","","[{""page_index"":0,""viewing_time"":1485},{""page_index"":1,""viewing_time"":2744}]","","","","","","","","",""
"survey-text","4","23529","0.0-4.0","zh26we6crnx1vzv","60fda0fbed68b10930a7085f","1","27","heterosexual","245","6.0","Male","White or Caucasian ","No   ","Undergraduate degree ","No, currently not in school ","n/a","n/a","n/a","4","2","3","4","1","0:30","2:0","0:0","3:0","0:0","0:30","2:0","0:0","2:0","0:0","0:0","4:0","0:0","4:0","0:0","5:0","2:0","5:0","8","8","5","1","1","4","3","3","1","1","1","3","1","1","1","3","3","1","3","3","3","1","1","2","$85 in 14 days","$40 tonight","$67 tonight","$34 tonight","$15 tonight","$32 tonight","$83 tonight","$21 tonight","$48 tonight","$40 tonight","$25 tonight","$65 tonight","$55 in 10 days","$30 tonight","$53 tonight","$47 tonight","$70 in 20 days","$50 tonight","$45 tonight","$27 tonight","$16 tonight","0.5","stim/N000.png","65","65","0.599999996","2","3","2","2","2","3","0","1","0","0","0","2","1","2","0","0","1","2","2","1","3","3","1","0","1","1","0","3","0","1","0","0","1","1","0","1","0","1","0","0","0","0","1","0","0","0","0","agree","9679","","","","{""prolID"":""60fda0fbed68b10930a7085f""}","","","","","","","",""
"survey-text","5","48273","0.0-5.0","zh26we6crnx1vzv","60fda0fbed68b10930a7085f","1","27","heterosexual","245","6.0","Male","White or Caucasian ","No   ","Undergraduate degree ","No, currently not in school ","n/a","n/a","n/a","4","2","3","4","1","0:30","2:0","0:0","3:0","0:0","0:30","2:0","0:0","2:0","0:0","0:0","4:0","0:0","4:0","0:0","5:0","2:0","5:0","8","8","5","1","1","4","3","3","1","1","1","3","1","1","1","3","3","1","3","3","3","1","1","2","$85 in 14 days","$40 tonight","$67 tonight","$34 tonight","$15 tonight","$32 tonight","$83 tonight","$21 tonight","$48 tonight","$40 tonight","$25 tonight","$65 tonight","$55 in 10 days","$30 tonight","$53 tonight","$47 tonight","$70 in 20 days","$50 tonight","$45 tonight","$27 tonight","$16 tonight","0.5","stim/N000.png","65","65","0.599999996","2","3","2","2","2","3","0","1","0","0","0","2","1","2","0","0","1","2","2","1","3","3","1","0","1","1","0","3","0","1","0","0","1","1","0","1","0","1","0","0","0","0","1","0","0","0","0","agree","24726","","","","{""age"":""27"",""sexual"":""heterosexual"",""weight"":""245"",""height"":""6.0""}","","","","","","","",""
"survey-multi-choice","6","63508","0.0-6.0","zh26we6crnx1vzv","60fda0fbed68b10930a7085f","1","27","heterosexual","245","6.0","Male","White or Caucasian ","No   ","Undergraduate degree ","No, currently not in school ","n/a","n/a","n/a","4","2","3","4","1","0:30","2:0","0:0","3:0","0:0","0:30","2:0","0:0","2:0","0:0","0:0","4:0","0:0","4:0","0:0","5:0","2:0","5:0","8","8","5","1","1","4","3","3","1","1","1","3","1","1","1","3","3","1","3","3","3","1","1","2","$85 in 14 days","$40 tonight","$67 tonight","$34 tonight","$15 tonight","$32 tonight","$83 tonight","$21 tonight","$48 tonight","$40 tonight","$25 tonight","$65 tonight","$55 in 10 days","$30 tonight","$53 tonight","$47 tonight","$70 in 20 days","$50 tonight","$45 tonight","$27 tonight","$16 tonight","0.5","stim/N000.png","65","65","0.599999996","2","3","2","2","2","3","0","1","0","0","0","2","1","2","0","0","1","2","2","1","3","3","1","0","1","1","0","3","0","1","0","0","1","1","0","1","0","1","0","0","0","0","1","0","0","0","0","agree","15233","","","","{""gender"":""Male"",""ethnicity"":""White or Caucasian "",""mental_check"":""No   "",""educ_l"":""Undergraduate degree "",""educ_c"":""No, currently not in school ""}","[0,1,2,3,4]","","","","","","",""
"survey-text","7","86130","0.0-7.0","zh26we6crnx1vzv","60fda0fbed68b10930a7085f","1","27","heterosexual","245","6.0","Male","White or Caucasian ","No   ","Undergraduate degree ","No, currently not in school ","n/a","n/a","n/a","4","2","3","4","1","0:30","2:0","0:0","3:0","0:0","0:30","2:0","0:0","2:0","0:0","0:0","4:0","0:0","4:0","0:0","5:0","2:0","5:0","8","8","5","1","1","4","3","3","1","1","1","3","1","1","1","3","3","1","3","3","3","1","1","2","$85 in 14 days","$40 tonight","$67 tonight","$34 tonight","$15 tonight","$32 tonight","$83 tonight","$21 tonight","$48 tonight","$40 tonight","$25 tonight","$65 tonight","$55 in 10 days","$30 tonight","$53 tonight","$47 tonight","$70 in 20 days","$50 tonight","$45 tonight","$27 tonight","$16 tonight","0.5","stim/N000.png","65","65","0.599999996","2","3","2","2","2","3","0","1","0","0","0","2","1","2","0","0","1","2","2","1","3","3","1","0","1","1","0","3","0","1","0","0","1","1","0","1","0","1","0","0","0","0","1","0","0","0","0","agree","22606","","","","{""mental"":""n/a"",""mentdrug"":""n/a"",""mentpos"":""n/a""}","","","","","","","",""
"survey-likert","8","118596","0.0-8.0","zh26we6crnx1vzv","60fda0fbed68b10930a7085f","1","27","heterosexual","245","6.0","Male","White or Caucasian ","No   ","Undergraduate degree ","No, currently not in school ","n/a","n/a","n/a","4","2","3","4","1","0:30","2:0","0:0","3:0","0:0","0:30","2:0","0:0","2:0","0:0","0:0","4:0","0:0","4:0","0:0","5:0","2:0","5:0","8","8","5","1","1","4","3","3","1","1","1","3","1","1","1","3","3","1","3","3","3","1","1","2","$85 in 14 days","$40 tonight","$67 tonight","$34 tonight","$15 tonight","$32 tonight","$83 tonight","$21 tonight","$48 tonight","$40 tonight","$25 tonight","$65 tonight","$55 in 10 days","$30 tonight","$53 tonight","$47 tonight","$70 in 20 days","$50 tonight","$45 tonight","$27 tonight","$16 tonight","0.5","stim/N000.png","65","65","0.599999996","2","3","2","2","2","3","0","1","0","0","0","2","1","2","0","0","1","2","2","1","3","3","1","0","1","1","0","3","0","1","0","0","1","1","0","1","0","1","0","0","0","0","1","0","0","0","0","agree","32463.000000000015","","","","{""soc_1"":4,""soc_2"":2,""soc_3"":3,""soc_4"":4,""soc_5"":1}","[0,1,2,3,4]","","","","","","",""
"survey-text","9","160610","0.0-9.0","zh26we6crnx1vzv","60fda0fbed68b10930a7085f","1","27","heterosexual","245","6.0","Male","White or Caucasian ","No   ","Undergraduate degree ","No, currently not in school ","n/a","n/a","n/a","4","2","3","4","1","0:30","2:0","0:0","3:0","0:0","0:30","2:0","0:0","2:0","0:0","0:0","4:0","0:0","4:0","0:0","5:0","2:0","5:0","8","8","5","1","1","4","3","3","1","1","1","3","1","1","1","3","3","1","3","3","3","1","1","2","$85 in 14 days","$40 tonight","$67 tonight","$34 tonight","$15 tonight","$32 tonight","$83 tonight","$21 tonight","$48 tonight","$40 tonight","$25 tonight","$65 tonight","$55 in 10 days","$30 tonight","$53 tonight","$47 tonight","$70 in 20 days","$50 tonight","$45 tonight","$27 tonight","$16 tonight","0.5","stim/N000.png","65","65","0.599999996","2","3","2","2","2","3","0","1","0","0","0","2","1","2","0","0","1","2","2","1","3","3","1","0","1","1","0","3","0","1","0","0","1","1","0","1","0","1","0","0","0","0","1","0","0","0","0","agree","41993","","","","{""tv_01"":""0:30"",""dev_01"":""2:0"",""lap_01"":""0:0"",""pho_01"":""3:0"",""tab_01"":""0:0""}","","","","","","","",""
"survey-text","10","208681","0.0-10.0","zh26we6crnx1vzv","60fda0fbed68b10930a7085f","1","27","heterosexual","245","6.0","Male","White or Caucasian ","No   ","Undergraduate degree ","No, currently not in school ","n/a","n/a","n/a","4","2","3","4","1","0:30","2:0","0:0","3:0","0:0","0:30","2:0","0:0","2:0","0:0","0:0","4:0","0:0","4:0","0:0","5:0","2:0","5:0","8","8","5","1","1","4","3","3","1","1","1","3","1","1","1","3","3","1","3","3","3","1","1","2","$85 in 14 days","$40 tonight","$67 tonight","$34 tonight","$15 tonight","$32 tonight","$83 tonight","$21 tonight","$48 tonight","$40 tonight","$25 tonight","$65 tonight","$55 in 10 days","$30 tonight","$53 tonight","$47 tonight","$70 in 20 days","$50 tonight","$45 tonight","$27 tonight","$16 tonight","0.5","stim/N000.png","65","65","0.599999996","2","3","2","2","2","3","0","1","0","0","0","2","1","2","0","0","1","2","2","1","3","3","1","0","1","1","0","3","0","1","0","0","1","1","0","1","0","1","0","0","0","0","1","0","0","0","0","agree","48060","","","","{""tv_02"":""0:30"",""dev_02"":""2:0"",""lap_02"":""0:0"",""pho_02"":""2:0"",""tab_02"":""0:0""}","","","","","","","",""
"survey-text","11","250762","0.0-11.0","zh26we6crnx1vzv","60fda0fbed68b10930a7085f","1","27","heterosexual","245","6.0","Male","White or Caucasian ","No   ","Undergraduate degree ","No, currently not in school ","n/a","n/a","n/a","4","2","3","4","1","0:30","2:0","0:0","3:0","0:0","0:30","2:0","0:0","2:0","0:0","0:0","4:0","0:0","4:0","0:0","5:0","2:0","5:0","8","8","5","1","1","4","3","3","1","1","1","3","1","1","1","3","3","1","3","3","3","1","1","2","$85 in 14 days","$40 tonight","$67 tonight","$34 tonight","$15 tonight","$32 tonight","$83 tonight","$21 tonight","$48 tonight","$40 tonight","$25 tonight","$65 tonight","$55 in 10 days","$30 tonight","$53 tonight","$47 tonight","$70 in 20 days","$50 tonight","$45 tonight","$27 tonight","$16 tonight","0.5","stim/N000.png","65","65","0.599999996","2","3","2","2","2","3","0","1","0","0","0","2","1","2","0","0","1","2","2","1","3","3","1","0","1","1","0","3","0","1","0","0","1","1","0","1","0","1","0","0","0","0","1","0","0","0","0","agree","42071","","","","{""tv_03"":""0:0"",""dev_03"":""4:0"",""lap_03"":""0:0"",""pho_03"":""4:0"",""tab_03"":""0:0""}","","","","","","","",""
"survey-text","12","294265","0.0-12.0","zh26we6crnx1vzv","60fda0fbed68b10930a7085f","1","27","heterosexual","245","6.0","Male","White or Caucasian ","No   ","Undergraduate degree ","No, currently not in school ","n/a","n/a","n/a","4","2","3","4","1","0:30","2:0","0:0","3:0","0:0","0:30","2:0","0:0","2:0","0:0","0:0","4:0","0:0","4:0","0:0","5:0","2:0","5:0","8","8","5","1","1","4","3","3","1","1","1","3","1","1","1","3","3","1","3","3","3","1","1","2","$85 in 14 days","$40 tonight","$67 tonight","$34 tonight","$15 tonight","$32 tonight","$83 tonight","$21 tonight","$48 tonight","$40 tonight","$25 tonight","$65 tonight","$55 in 10 days","$30 tonight","$53 tonight","$47 tonight","$70 in 20 days","$50 tonight","$45 tonight","$27 tonight","$16 tonight","0.5","stim/N000.png","65","65","0.599999996","2","3","2","2","2","3","0","1","0","0","0","2","1","2","0","0","1","2","2","1","3","3","1","0","1","1","0","3","0","1","0","0","1","1","0","1","0","1","0","0","0","0","1","0","0","0","0","agree","43489.99999999997","","","","{""Wedsec"":""5:0"",""Wnisec"":""2:0"",""Wknsec"":""5:0""}","","","","","","","",""
"survey-likert","13","323340","0.0-13.0","zh26we6crnx1vzv","60fda0fbed68b10930a7085f","1","27","heterosexual","245","6.0","Male","White or Caucasian ","No   ","Undergraduate degree ","No, currently not in school ","n/a","n/a","n/a","4","2","3","4","1","0:30","2:0","0:0","3:0","0:0","0:30","2:0","0:0","2:0","0:0","0:0","4:0","0:0","4:0","0:0","5:0","2:0","5:0","8","8","5","1","1","4","3","3","1","1","1","3","1","1","1","3","3","1","3","3","3","1","1","2","$85 in 14 days","$40 tonight","$67 tonight","$34 tonight","$15 tonight","$32 tonight","$83 tonight","$21 tonight","$48 tonight","$40 tonight","$25 tonight","$65 tonight","$55 in 10 days","$30 tonight","$53 tonight","$47 tonight","$70 in 20 days","$50 tonight","$45 tonight","$27 tonight","$16 tonight","0.5","stim/N000.png","65","65","0.599999996","2","3","2","2","2","3","0","1","0","0","0","2","1","2","0","0","1","2","2","1","3","3","1","0","1","1","0","3","0","1","0","0","1","1","0","1","0","1","0","0","0","0","1","0","0","0","0","agree","29073","","","","{""sesparent"":8,""sesstudent"":8,""sesladder"":5,""sescurrency"":1}","[0,1,2,3]","","","","","","",""
"survey-likert","14","337578","0.0-14.0","zh26we6crnx1vzv","60fda0fbed68b10930a7085f","1","27","heterosexual","245","6.0","Male","White or Caucasian ","No   ","Undergraduate degree ","No, currently not in school ","n/a","n/a","n/a","4","2","3","4","1","0:30","2:0","0:0","3:0","0:0","0:30","2:0","0:0","2:0","0:0","0:0","4:0","0:0","4:0","0:0","5:0","2:0","5:0","8","8","5","1","1","4","3","3","1","1","1","3","1","1","1","3","3","1","3","3","3","1","1","2","$85 in 14 days","$40 tonight","$67 tonight","$34 tonight","$15 tonight","$32 tonight","$83 tonight","$21 tonight","$48 tonight","$40 tonight","$25 tonight","$65 tonight","$55 in 10 days","$30 tonight","$53 tonight","$47 tonight","$70 in 20 days","$50 tonight","$45 tonight","$27 tonight","$16 tonight","0.5","stim/N000.png","65","65","0.599999996","2","3","2","2","2","3","0","1","0","0","0","2","1","2","0","0","1","2","2","1","3","3","1","0","1","1","0","3","0","1","0","0","1","1","0","1","0","1","0","0","0","0","1","0","0","0","0","agree","14232","","","","{""educ_hs"":1,""educ_ce"":4}","[0,1]","","","","","","",""
"survey-likert","15","413555","0.0-15.0","zh26we6crnx1vzv","60fda0fbed68b10930a7085f","1","27","heterosexual","245","6.0","Male","White or Caucasian ","No   ","Undergraduate degree ","No, currently not in school ","n/a","n/a","n/a","4","2","3","4","1","0:30","2:0","0:0","3:0","0:0","0:30","2:0","0:0","2:0","0:0","0:0","4:0","0:0","4:0","0:0","5:0","2:0","5:0","8","8","5","1","1","4","3","3","1","1","1","3","1","1","1","3","3","1","3","3","3","1","1","2","$85 in 14 days","$40 tonight","$67 tonight","$34 tonight","$15 tonight","$32 tonight","$83 tonight","$21 tonight","$48 tonight","$40 tonight","$25 tonight","$65 tonight","$55 in 10 days","$30 tonight","$53 tonight","$47 tonight","$70 in 20 days","$50 tonight","$45 tonight","$27 tonight","$16 tonight","0.5","stim/N000.png","65","65","0.599999996","2","3","2","2","2","3","0","1","0","0","0","2","1","2","0","0","1","2","2","1","3","3","1","0","1","1","0","3","0","1","0","0","1","1","0","1","0","1","0","0","0","0","1","0","0","0","0","agree","75971","","","","{""nfc_01"":3,""nfc_02"":3,""nfc_03"":1,""nfc_04"":1,""nfc_05"":1,""nfc_06"":3,""nfc_07"":1,""nfc_08"":1,""nfc_09"":1,""nfc_10"":3,""nfc_11"":3,""nfc_12"":1,""nfc_13"":3,""nfc_14"":3,""nfc_15"":3,""nfc_16"":1,""nfc_17"":1,""nfc_18"":2}","[0,1,2,3,4,5,6,7,8,9,10,11,12,13,14,15,16,17]","","","","","","",""
"survey-multi-choice","16","478839","0.0-16.0","zh26we6crnx1vzv","60fda0fbed68b10930a7085f","1","27","heterosexual","245","6.0","Male","White or Caucasian ","No   ","Undergraduate degree ","No, currently not in school ","n/a","n/a","n/a","4","2","3","4","1","0:30","2:0","0:0","3:0","0:0","0:30","2:0","0:0","2:0","0:0","0:0","4:0","0:0","4:0","0:0","5:0","2:0","5:0","8","8","5","1","1","4","3","3","1","1","1","3","1","1","1","3","3","1","3","3","3","1","1","2","$85 in 14 days","$40 tonight","$67 tonight","$34 tonight","$15 tonight","$32 tonight","$83 tonight","$21 tonight","$48 tonight","$40 tonight","$25 tonight","$65 tonight","$55 in 10 days","$30 tonight","$53 tonight","$47 tonight","$70 in 20 days","$50 tonight","$45 tonight","$27 tonight","$16 tonight","0.5","stim/N000.png","65","65","0.599999996","2","3","2","2","2","3","0","1","0","0","0","2","1","2","0","0","1","2","2","1","3","3","1","0","1","1","0","3","0","1","0","0","1","1","0","1","0","1","0","0","0","0","1","0","0","0","0","agree","65278.00000000006","","","","{""kirby01"":""$85 in 14 days"",""kirby02"":""$40 tonight"",""kirby03"":""$67 tonight"",""kirby04"":""$34 tonight"",""kirby05"":""$15 tonight"",""kirby06"":""$32 tonight"",""kirby07"":""$83 tonight"",""kirby08"":""$21 tonight"",""kirby09"":""$48 tonight"",""kirby10"":""$40 tonight"",""kirby11"":""$25 tonight"",""kirby12"":""$65 tonight"",""kirby13"":""$55 in 10 days"",""kirby14"":""$30 tonight"",""kirby15"":""$53 tonight"",""kirby16"":""$47 tonight"",""kirby17"":""$70 in 20 days"",""kirby18"":""$50 tonight"",""kirby19"":""$45 tonight"",""kirby20"":""$27 tonight"",""kirby21"":""$16 tonight""}","[0,1,2,3,4,5,6,7,8,9,10,11,12,13,14,15,16,17,18,19,20]","","","","","","",""
"reconstruction","17","489263","0.0-17.0","zh26we6crnx1vzv","60fda0fbed68b10930a7085f","1","27","heterosexual","245","6.0","Male","White or Caucasian ","No   ","Undergraduate degree ","No, currently not in school ","n/a","n/a","n/a","4","2","3","4","1","0:30","2:0","0:0","3:0","0:0","0:30","2:0","0:0","2:0","0:0","0:0","4:0","0:0","4:0","0:0","5:0","2:0","5:0","8","8","5","1","1","4","3","3","1","1","1","3","1","1","1","3","3","1","3","3","3","1","1","2","$85 in 14 days","$40 tonight","$67 tonight","$34 tonight","$15 tonight","$32 tonight","$83 tonight","$21 tonight","$48 tonight","$40 tonight","$25 tonight","$65 tonight","$55 in 10 days","$30 tonight","$53 tonight","$47 tonight","$70 in 20 days","$50 tonight","$45 tonight","$27 tonight","$16 tonight","0.5","stim/N000.png","65","65","0.599999996","2","3","2","2","2","3","0","1","0","0","0","2","1","2","0","0","1","2","2","1","3","3","1","0","1","1","0","3","0","1","0","0","1","1","0","1","0","1","0","0","0","0","1","0","0","0","0","agree","10417.999999999942","","","","","","0.5","0.5","","","","",""
"image-keyboard-response","18","504407","0.0-18.0","zh26we6crnx1vzv","60fda0fbed68b10930a7085f","1","27","heterosexual","245","6.0","Male","White or Caucasian ","No   ","Undergraduate degree ","No, currently not in school ","n/a","n/a","n/a","4","2","3","4","1","0:30","2:0","0:0","3:0","0:0","0:30","2:0","0:0","2:0","0:0","0:0","4:0","0:0","4:0","0:0","5:0","2:0","5:0","8","8","5","1","1","4","3","3","1","1","1","3","1","1","1","3","3","1","3","3","3","1","1","2","$85 in 14 days","$40 tonight","$67 tonight","$34 tonight","$15 tonight","$32 tonight","$83 tonight","$21 tonight","$48 tonight","$40 tonight","$25 tonight","$65 tonight","$55 in 10 days","$30 tonight","$53 tonight","$47 tonight","$70 in 20 days","$50 tonight","$45 tonight","$27 tonight","$16 tonight","0.5","stim/N000.png","65","65","0.599999996","2","3","2","2","2","3","0","1","0","0","0","2","1","2","0","0","1","2","2","1","3","3","1","0","1","1","0","3","0","1","0","0","1","1","0","1","0","1","0","0","0","0","1","0","0","0","0","agree","15142","","","","","","","","stim/N000.png","65","","",""
"instructions","19","546499","0.0-19.0","zh26we6crnx1vzv","60fda0fbed68b10930a7085f","1","27","heterosexual","245","6.0","Male","White or Caucasian ","No   ","Undergraduate degree ","No, currently not in school ","n/a","n/a","n/a","4","2","3","4","1","0:30","2:0","0:0","3:0","0:0","0:30","2:0","0:0","2:0","0:0","0:0","4:0","0:0","4:0","0:0","5:0","2:0","5:0","8","8","5","1","1","4","3","3","1","1","1","3","1","1","1","3","3","1","3","3","3","1","1","2","$85 in 14 days","$40 tonight","$67 tonight","$34 tonight","$15 tonight","$32 tonight","$83 tonight","$21 tonight","$48 tonight","$40 tonight","$25 tonight","$65 tonight","$55 in 10 days","$30 tonight","$53 tonight","$47 tonight","$70 in 20 days","$50 tonight","$45 tonight","$27 tonight","$16 tonight","0.5","stim/N000.png","65","65","0.599999996","2","3","2","2","2","3","0","1","0","0","0","2","1","2","0","0","1","2","2","1","3","3","1","0","1","1","0","3","0","1","0","0","1","1","0","1","0","1","0","0","0","0","1","0","0","0","0","agree","42091","","","[{""page_index"":0,""viewing_time"":3171},{""page_index"":1,""viewing_time"":4485},{""page_index"":2,""viewing_time"":5545.000000000058},{""page_index"":3,""viewing_time"":6050.999999999942},{""page_index"":4,""viewing_time"":14127},{""page_index"":5,""viewing_time"":7036},{""page_index"":6,""viewing_time"":1676}]","","","","","","","","",""
"image-keyboard-response","20","547000","0.0-20.0-0.0","zh26we6crnx1vzv","60fda0fbed68b10930a7085f","1","27","heterosexual","245","6.0","Male","White or Caucasian ","No   ","Undergraduate degree ","No, currently not in school ","n/a","n/a","n/a","4","2","3","4","1","0:30","2:0","0:0","3:0","0:0","0:30","2:0","0:0","2:0","0:0","0:0","4:0","0:0","4:0","0:0","5:0","2:0","5:0","8","8","5","1","1","4","3","3","1","1","1","3","1","1","1","3","3","1","3","3","3","1","1","2","$85 in 14 days","$40 tonight","$67 tonight","$34 tonight","$15 tonight","$32 tonight","$83 tonight","$21 tonight","$48 tonight","$40 tonight","$25 tonight","$65 tonight","$55 in 10 days","$30 tonight","$53 tonight","$47 tonight","$70 in 20 days","$50 tonight","$45 tonight","$27 tonight","$16 tonight","0.5","stim/N000.png","65","65","0.599999996","2","3","2","2","2","3","0","1","0","0","0","2","1","2","0","0","1","2","2","1","3","3","1","0","1","1","0","3","0","1","0","0","1","1","0","1","0","1","0","0","0","0","1","0","0","0","0","agree","null","","","","","","","","stim/T080.png","null","","",""
"html-keyboard-response","21","548574","0.0-20.0-1.0","zh26we6crnx1vzv","60fda0fbed68b10930a7085f","1","27","heterosexual","245","6.0","Male","White or Caucasian ","No   ","Undergraduate degree ","No, currently not in school ","n/a","n/a","n/a","4","2","3","4","1","0:30","2:0","0:0","3:0","0:0","0:30","2:0","0:0","2:0","0:0","0:0","4:0","0:0","4:0","0:0","5:0","2:0","5:0","8","8","5","1","1","4","3","3","1","1","1","3","1","1","1","3","3","1","3","3","3","1","1","2","$85 in 14 days","$40 tonight","$67 tonight","$34 tonight","$15 tonight","$32 tonight","$83 tonight","$21 tonight","$48 tonight","$40 tonight","$25 tonight","$65 tonight","$55 in 10 days","$30 tonight","$53 tonight","$47 tonight","$70 in 20 days","$50 tonight","$45 tonight","$27 tonight","$16 tonight","0.5","stim/N000.png","65","65","0.599999996","2","3","2","2","2","3","0","1","0","0","0","2","1","2","0","0","1","2","2","1","3","3","1","0","1","1","0","3","0","1","0","0","1","1","0","1","0","1","0","0","0","0","1","0","0","0","0","agree","1573","","","","","","","","<div style=""font-size:60px;"">?</div>","76","1","Practice","0.5"
"image-keyboard-response","22","549576","0.0-20.0-0.1","zh26we6crnx1vzv","60fda0fbed68b10930a7085f","1","27","heterosexual","245","6.0","Male","White or Caucasian ","No   ","Undergraduate degree ","No, currently not in school ","n/a","n/a","n/a","4","2","3","4","1","0:30","2:0","0:0","3:0","0:0","0:30","2:0","0:0","2:0","0:0","0:0","4:0","0:0","4:0","0:0","5:0","2:0","5:0","8","8","5","1","1","4","3","3","1","1","1","3","1","1","1","3","3","1","3","3","3","1","1","2","$85 in 14 days","$40 tonight","$67 tonight","$34 tonight","$15 tonight","$32 tonight","$83 tonight","$21 tonight","$48 tonight","$40 tonight","$25 tonight","$65 tonight","$55 in 10 days","$30 tonight","$53 tonight","$47 tonight","$70 in 20 days","$50 tonight","$45 tonight","$27 tonight","$16 tonight","0.5","stim/N000.png","65","65","0.599999996","2","3","2","2","2","3","0","1","0","0","0","2","1","2","0","0","1","2","2","1","3","3","1","0","1","1","0","3","0","1","0","0","1","1","0","1","0","1","0","0","0","0","1","0","0","0","0","agree","null","","","","","","","","stim/T080.png","null","","",""
"html-keyboard-response","23","550175","0.0-20.0-1.1","zh26we6crnx1vzv","60fda0fbed68b10930a7085f","1","27","heterosexual","245","6.0","Male","White or Caucasian ","No   ","Undergraduate degree ","No, currently not in school ","n/a","n/a","n/a","4","2","3","4","1","0:30","2:0","0:0","3:0","0:0","0:30","2:0","0:0","2:0","0:0","0:0","4:0","0:0","4:0","0:0","5:0","2:0","5:0","8","8","5","1","1","4","3","3","1","1","1","3","1","1","1","3","3","1","3","3","3","1","1","2","$85 in 14 days","$40 tonight","$67 tonight","$34 tonight","$15 tonight","$32 tonight","$83 tonight","$21 tonight","$48 tonight","$40 tonight","$25 tonight","$65 tonight","$55 in 10 days","$30 tonight","$53 tonight","$47 tonight","$70 in 20 days","$50 tonight","$45 tonight","$27 tonight","$16 tonight","0.5","stim/N000.png","65","65","0.599999996","2","3","2","2","2","3","0","1","0","0","0","2","1","2","0","0","1","2","2","1","3","3","1","0","1","1","0","3","0","1","0","0","1","1","0","1","0","1","0","0","0","0","1","0","0","0","0","agree","598","","","","","","","","<div style=""font-size:60px;"">?</div>","76","2","Practice","0.5"
"image-keyboard-response","24","551176","0.0-20.0-0.2","zh26we6crnx1vzv","60fda0fbed68b10930a7085f","1","27","heterosexual","245","6.0","Male","White or Caucasian ","No   ","Undergraduate degree ","No, currently not in school ","n/a","n/a","n/a","4","2","3","4","1","0:30","2:0","0:0","3:0","0:0","0:30","2:0","0:0","2:0","0:0","0:0","4:0","0:0","4:0","0:0","5:0","2:0","5:0","8","8","5","1","1","4","3","3","1","1","1","3","1","1","1","3","3","1","3","3","3","1","1","2","$85 in 14 days","$40 tonight","$67 tonight","$34 tonight","$15 tonight","$32 tonight","$83 tonight","$21 tonight","$48 tonight","$40 tonight","$25 tonight","$65 tonight","$55 in 10 days","$30 tonight","$53 tonight","$47 tonight","$70 in 20 days","$50 tonight","$45 tonight","$27 tonight","$16 tonight","0.5","stim/N000.png","65","65","0.599999996","2","3","2","2","2","3","0","1","0","0","0","2","1","2","0","0","1","2","2","1","3","3","1","0","1","1","0","3","0","1","0","0","1","1","0","1","0","1","0","0","0","0","1","0","0","0","0","agree","null","","","","","","","","stim/H210.png","null","","",""
"html-keyboard-response","25","551415","0.0-20.0-1.2","zh26we6crnx1vzv","60fda0fbed68b10930a7085f","1","27","heterosexual","245","6.0","Male","White or Caucasian ","No   ","Undergraduate degree ","No, currently not in school ","n/a","n/a","n/a","4","2","3","4","1","0:30","2:0","0:0","3:0","0:0","0:30","2:0","0:0","2:0","0:0","0:0","4:0","0:0","4:0","0:0","5:0","2:0","5:0","8","8","5","1","1","4","3","3","1","1","1","3","1","1","1","3","3","1","3","3","3","1","1","2","$85 in 14 days","$40 tonight","$67 tonight","$34 tonight","$15 tonight","$32 tonight","$83 tonight","$21 tonight","$48 tonight","$40 tonight","$25 tonight","$65 tonight","$55 in 10 days","$30 tonight","$53 tonight","$47 tonight","$70 in 20 days","$50 tonight","$45 tonight","$27 tonight","$16 tonight","0.5","stim/N000.png","65","65","0.599999996","2","3","2","2","2","3","0","1","0","0","0","2","1","2","0","0","1","2","2","1","3","3","1","0","1","1","0","3","0","1","0","0","1","1","0","1","0","1","0","0","0","0","1","0","0","0","0","agree","238","","","","","","","","<div style=""font-size:60px;"">?</div>","76","3","Practice","0.5"
"image-keyboard-response","26","552417","0.0-20.0-0.3","zh26we6crnx1vzv","60fda0fbed68b10930a7085f","1","27","heterosexual","245","6.0","Male","White or Caucasian ","No   ","Undergraduate degree ","No, currently not in school ","n/a","n/a","n/a","4","2","3","4","1","0:30","2:0","0:0","3:0","0:0","0:30","2:0","0:0","2:0","0:0","0:0","4:0","0:0","4:0","0:0","5:0","2:0","5:0","8","8","5","1","1","4","3","3","1","1","1","3","1","1","1","3","3","1","3","3","3","1","1","2","$85 in 14 days","$40 tonight","$67 tonight","$34 tonight","$15 tonight","$32 tonight","$83 tonight","$21 tonight","$48 tonight","$40 tonight","$25 tonight","$65 tonight","$55 in 10 days","$30 tonight","$53 tonight","$47 tonight","$70 in 20 days","$50 tonight","$45 tonight","$27 tonight","$16 tonight","0.5","stim/N000.png","65","65","0.599999996","2","3","2","2","2","3","0","1","0","0","0","2","1","2","0","0","1","2","2","1","3","3","1","0","1","1","0","3","0","1","0","0","1","1","0","1","0","1","0","0","0","0","1","0","0","0","0","agree","null","","","","","","","","stim/T010.png","null","","",""
"html-keyboard-response","27","552799","0.0-20.0-1.3","zh26we6crnx1vzv","60fda0fbed68b10930a7085f","1","27","heterosexual","245","6.0","Male","White or Caucasian ","No   ","Undergraduate degree ","No, currently not in school ","n/a","n/a","n/a","4","2","3","4","1","0:30","2:0","0:0","3:0","0:0","0:30","2:0","0:0","2:0","0:0","0:0","4:0","0:0","4:0","0:0","5:0","2:0","5:0","8","8","5","1","1","4","3","3","1","1","1","3","1","1","1","3","3","1","3","3","3","1","1","2","$85 in 14 days","$40 tonight","$67 tonight","$34 tonight","$15 tonight","$32 tonight","$83 tonight","$21 tonight","$48 tonight","$40 tonight","$25 tonight","$65 tonight","$55 in 10 days","$30 tonight","$53 tonight","$47 tonight","$70 in 20 days","$50 tonight","$45 tonight","$27 tonight","$16 tonight","0.5","stim/N000.png","65","65","0.599999996","2","3","2","2","2","3","0","1","0","0","0","2","1","2","0","0","1","2","2","1","3","3","1","0","1","1","0","3","0","1","0","0","1","1","0","1","0","1","0","0","0","0","1","0","0","0","0","agree","381","","","","","","","","<div style=""font-size:60px;"">?</div>","76","4","Practice","0.5"
"image-keyboard-response","28","553800","0.0-20.0-0.4","zh26we6crnx1vzv","60fda0fbed68b10930a7085f","1","27","heterosexual","245","6.0","Male","White or Caucasian ","No   ","Undergraduate degree ","No, currently not in school ","n/a","n/a","n/a","4","2","3","4","1","0:30","2:0","0:0","3:0","0:0","0:30","2:0","0:0","2:0","0:0","0:0","4:0","0:0","4:0","0:0","5:0","2:0","5:0","8","8","5","1","1","4","3","3","1","1","1","3","1","1","1","3","3","1","3","3","3","1","1","2","$85 in 14 days","$40 tonight","$67 tonight","$34 tonight","$15 tonight","$32 tonight","$83 tonight","$21 tonight","$48 tonight","$40 tonight","$25 tonight","$65 tonight","$55 in 10 days","$30 tonight","$53 tonight","$47 tonight","$70 in 20 days","$50 tonight","$45 tonight","$27 tonight","$16 tonight","0.5","stim/N000.png","65","65","0.599999996","2","3","2","2","2","3","0","1","0","0","0","2","1","2","0","0","1","2","2","1","3","3","1","0","1","1","0","3","0","1","0","0","1","1","0","1","0","1","0","0","0","0","1","0","0","0","0","agree","null","","","","","","","","stim/T260.png","null","","",""
"html-keyboard-response","29","554350","0.0-20.0-1.4","zh26we6crnx1vzv","60fda0fbed68b10930a7085f","1","27","heterosexual","245","6.0","Male","White or Caucasian ","No   ","Undergraduate degree ","No, currently not in school ","n/a","n/a","n/a","4","2","3","4","1","0:30","2:0","0:0","3:0","0:0","0:30","2:0","0:0","2:0","0:0","0:0","4:0","0:0","4:0","0:0","5:0","2:0","5:0","8","8","5","1","1","4","3","3","1","1","1","3","1","1","1","3","3","1","3","3","3","1","1","2","$85 in 14 days","$40 tonight","$67 tonight","$34 tonight","$15 tonight","$32 tonight","$83 tonight","$21 tonight","$48 tonight","$40 tonight","$25 tonight","$65 tonight","$55 in 10 days","$30 tonight","$53 tonight","$47 tonight","$70 in 20 days","$50 tonight","$45 tonight","$27 tonight","$16 tonight","0.5","stim/N000.png","65","65","0.599999996","2","3","2","2","2","3","0","1","0","0","0","2","1","2","0","0","1","2","2","1","3","3","1","0","1","1","0","3","0","1","0","0","1","1","0","1","0","1","0","0","0","0","1","0","0","0","0","agree","550","","","","","","","","<div style=""font-size:60px;"">?</div>","65","5","Practice","0.5"
"image-keyboard-response","30","555353","0.0-20.0-0.5","zh26we6crnx1vzv","60fda0fbed68b10930a7085f","1","27","heterosexual","245","6.0","Male","White or Caucasian ","No   ","Undergraduate degree ","No, currently not in school ","n/a","n/a","n/a","4","2","3","4","1","0:30","2:0","0:0","3:0","0:0","0:30","2:0","0:0","2:0","0:0","0:0","4:0","0:0","4:0","0:0","5:0","2:0","5:0","8","8","5","1","1","4","3","3","1","1","1","3","1","1","1","3","3","1","3","3","3","1","1","2","$85 in 14 days","$40 tonight","$67 tonight","$34 tonight","$15 tonight","$32 tonight","$83 tonight","$21 tonight","$48 tonight","$40 tonight","$25 tonight","$65 tonight","$55 in 10 days","$30 tonight","$53 tonight","$47 tonight","$70 in 20 days","$50 tonight","$45 tonight","$27 tonight","$16 tonight","0.5","stim/N000.png","65","65","0.599999996","2","3","2","2","2","3","0","1","0","0","0","2","1","2","0","0","1","2","2","1","3","3","1","0","1","1","0","3","0","1","0","0","1","1","0","1","0","1","0","0","0","0","1","0","0","0","0","agree","null","","","","","","","","stim/H130.png","null","","",""
"html-keyboard-response","31","555694","0.0-20.0-1.5","zh26we6crnx1vzv","60fda0fbed68b10930a7085f","1","27","heterosexual","245","6.0","Male","White or Caucasian ","No   ","Undergraduate degree ","No, currently not in school ","n/a","n/a","n/a","4","2","3","4","1","0:30","2:0","0:0","3:0","0:0","0:30","2:0","0:0","2:0","0:0","0:0","4:0","0:0","4:0","0:0","5:0","2:0","5:0","8","8","5","1","1","4","3","3","1","1","1","3","1","1","1","3","3","1","3","3","3","1","1","2","$85 in 14 days","$40 tonight","$67 tonight","$34 tonight","$15 tonight","$32 tonight","$83 tonight","$21 tonight","$48 tonight","$40 tonight","$25 tonight","$65 tonight","$55 in 10 days","$30 tonight","$53 tonight","$47 tonight","$70 in 20 days","$50 tonight","$45 tonight","$27 tonight","$16 tonight","0.5","stim/N000.png","65","65","0.599999996","2","3","2","2","2","3","0","1","0","0","0","2","1","2","0","0","1","2","2","1","3","3","1","0","1","1","0","3","0","1","0","0","1","1","0","1","0","1","0","0","0","0","1","0","0","0","0","agree","340","","","","","","","","<div style=""font-size:60px;"">?</div>","76","6","Practice","0.5"
"image-keyboard-response","32","556696","0.0-20.0-0.6","zh26we6crnx1vzv","60fda0fbed68b10930a7085f","1","27","heterosexual","245","6.0","Male","White or Caucasian ","No   ","Undergraduate degree ","No, currently not in school ","n/a","n/a","n/a","4","2","3","4","1","0:30","2:0","0:0","3:0","0:0","0:30","2:0","0:0","2:0","0:0","0:0","4:0","0:0","4:0","0:0","5:0","2:0","5:0","8","8","5","1","1","4","3","3","1","1","1","3","1","1","1","3","3","1","3","3","3","1","1","2","$85 in 14 days","$40 tonight","$67 tonight","$34 tonight","$15 tonight","$32 tonight","$83 tonight","$21 tonight","$48 tonight","$40 tonight","$25 tonight","$65 tonight","$55 in 10 days","$30 tonight","$53 tonight","$47 tonight","$70 in 20 days","$50 tonight","$45 tonight","$27 tonight","$16 tonight","0.5","stim/N000.png","65","65","0.599999996","2","3","2","2","2","3","0","1","0","0","0","2","1","2","0","0","1","2","2","1","3","3","1","0","1","1","0","3","0","1","0","0","1","1","0","1","0","1","0","0","0","0","1","0","0","0","0","agree","null","","","","","","","","stim/H190.png","null","","",""
"html-keyboard-response","33","556895","0.0-20.0-1.6","zh26we6crnx1vzv","60fda0fbed68b10930a7085f","1","27","heterosexual","245","6.0","Male","White or Caucasian ","No   ","Undergraduate degree ","No, currently not in school ","n/a","n/a","n/a","4","2","3","4","1","0:30","2:0","0:0","3:0","0:0","0:30","2:0","0:0","2:0","0:0","0:0","4:0","0:0","4:0","0:0","5:0","2:0","5:0","8","8","5","1","1","4","3","3","1","1","1","3","1","1","1","3","3","1","3","3","3","1","1","2","$85 in 14 days","$40 tonight","$67 tonight","$34 tonight","$15 tonight","$32 tonight","$83 tonight","$21 tonight","$48 tonight","$40 tonight","$25 tonight","$65 tonight","$55 in 10 days","$30 tonight","$53 tonight","$47 tonight","$70 in 20 days","$50 tonight","$45 tonight","$27 tonight","$16 tonight","0.5","stim/N000.png","65","65","0.599999996","2","3","2","2","2","3","0","1","0","0","0","2","1","2","0","0","1","2","2","1","3","3","1","0","1","1","0","3","0","1","0","0","1","1","0","1","0","1","0","0","0","0","1","0","0","0","0","agree","199","","","","","","","","<div style=""font-size:60px;"">?</div>","76","7","Practice","0.5"
"image-keyboard-response","34","557896","0.0-20.0-0.7","zh26we6crnx1vzv","60fda0fbed68b10930a7085f","1","27","heterosexual","245","6.0","Male","White or Caucasian ","No   ","Undergraduate degree ","No, currently not in school ","n/a","n/a","n/a","4","2","3","4","1","0:30","2:0","0:0","3:0","0:0","0:30","2:0","0:0","2:0","0:0","0:0","4:0","0:0","4:0","0:0","5:0","2:0","5:0","8","8","5","1","1","4","3","3","1","1","1","3","1","1","1","3","3","1","3","3","3","1","1","2","$85 in 14 days","$40 tonight","$67 tonight","$34 tonight","$15 tonight","$32 tonight","$83 tonight","$21 tonight","$48 tonight","$40 tonight","$25 tonight","$65 tonight","$55 in 10 days","$30 tonight","$53 tonight","$47 tonight","$70 in 20 days","$50 tonight","$45 tonight","$27 tonight","$16 tonight","0.5","stim/N000.png","65","65","0.599999996","2","3","2","2","2","3","0","1","0","0","0","2","1","2","0","0","1","2","2","1","3","3","1","0","1","1","0","3","0","1","0","0","1","1","0","1","0","1","0","0","0","0","1","0","0","0","0","agree","null","","","","","","","","stim/T180.png","null","","",""
"html-keyboard-response","35","558318","0.0-20.0-1.7","zh26we6crnx1vzv","60fda0fbed68b10930a7085f","1","27","heterosexual","245","6.0","Male","White or Caucasian ","No   ","Undergraduate degree ","No, currently not in school ","n/a","n/a","n/a","4","2","3","4","1","0:30","2:0","0:0","3:0","0:0","0:30","2:0","0:0","2:0","0:0","0:0","4:0","0:0","4:0","0:0","5:0","2:0","5:0","8","8","5","1","1","4","3","3","1","1","1","3","1","1","1","3","3","1","3","3","3","1","1","2","$85 in 14 days","$40 tonight","$67 tonight","$34 tonight","$15 tonight","$32 tonight","$83 tonight","$21 tonight","$48 tonight","$40 tonight","$25 tonight","$65 tonight","$55 in 10 days","$30 tonight","$53 tonight","$47 tonight","$70 in 20 days","$50 tonight","$45 tonight","$27 tonight","$16 tonight","0.5","stim/N000.png","65","65","0.599999996","2","3","2","2","2","3","0","1","0","0","0","2","1","2","0","0","1","2","2","1","3","3","1","0","1","1","0","3","0","1","0","0","1","1","0","1","0","1","0","0","0","0","1","0","0","0","0","agree","422","","","","","","","","<div style=""font-size:60px;"">?</div>","76","8","Practice","0.5"
"image-keyboard-response","36","559320","0.0-20.0-0.8","zh26we6crnx1vzv","60fda0fbed68b10930a7085f","1","27","heterosexual","245","6.0","Male","White or Caucasian ","No   ","Undergraduate degree ","No, currently not in school ","n/a","n/a","n/a","4","2","3","4","1","0:30","2:0","0:0","3:0","0:0","0:30","2:0","0:0","2:0","0:0","0:0","4:0","0:0","4:0","0:0","5:0","2:0","5:0","8","8","5","1","1","4","3","3","1","1","1","3","1","1","1","3","3","1","3","3","3","1","1","2","$85 in 14 days","$40 tonight","$67 tonight","$34 tonight","$15 tonight","$32 tonight","$83 tonight","$21 tonight","$48 tonight","$40 tonight","$25 tonight","$65 tonight","$55 in 10 days","$30 tonight","$53 tonight","$47 tonight","$70 in 20 days","$50 tonight","$45 tonight","$27 tonight","$16 tonight","0.5","stim/N000.png","65","65","0.599999996","2","3","2","2","2","3","0","1","0","0","0","2","1","2","0","0","1","2","2","1","3","3","1","0","1","1","0","3","0","1","0","0","1","1","0","1","0","1","0","0","0","0","1","0","0","0","0","agree","null","","","","","","","","stim/H050.png","null","","",""
"html-keyboard-response","37","559791","0.0-20.0-1.8","zh26we6crnx1vzv","60fda0fbed68b10930a7085f","1","27","heterosexual","245","6.0","Male","White or Caucasian ","No   ","Undergraduate degree ","No, currently not in school ","n/a","n/a","n/a","4","2","3","4","1","0:30","2:0","0:0","3:0","0:0","0:30","2:0","0:0","2:0","0:0","0:0","4:0","0:0","4:0","0:0","5:0","2:0","5:0","8","8","5","1","1","4","3","3","1","1","1","3","1","1","1","3","3","1","3","3","3","1","1","2","$85 in 14 days","$40 tonight","$67 tonight","$34 tonight","$15 tonight","$32 tonight","$83 tonight","$21 tonight","$48 tonight","$40 tonight","$25 tonight","$65 tonight","$55 in 10 days","$30 tonight","$53 tonight","$47 tonight","$70 in 20 days","$50 tonight","$45 tonight","$27 tonight","$16 tonight","0.5","stim/N000.png","65","65","0.599999996","2","3","2","2","2","3","0","1","0","0","0","2","1","2","0","0","1","2","2","1","3","3","1","0","1","1","0","3","0","1","0","0","1","1","0","1","0","1","0","0","0","0","1","0","0","0","0","agree","470.0000000001164","","","","","","","","<div style=""font-size:60px;"">?</div>","76","9","Practice","0.5"
"image-keyboard-response","38","560792","0.0-20.0-0.9","zh26we6crnx1vzv","60fda0fbed68b10930a7085f","1","27","heterosexual","245","6.0","Male","White or Caucasian ","No   ","Undergraduate degree ","No, currently not in school ","n/a","n/a","n/a","4","2","3","4","1","0:30","2:0","0:0","3:0","0:0","0:30","2:0","0:0","2:0","0:0","0:0","4:0","0:0","4:0","0:0","5:0","2:0","5:0","8","8","5","1","1","4","3","3","1","1","1","3","1","1","1","3","3","1","3","3","3","1","1","2","$85 in 14 days","$40 tonight","$67 tonight","$34 tonight","$15 tonight","$32 tonight","$83 tonight","$21 tonight","$48 tonight","$40 tonight","$25 tonight","$65 tonight","$55 in 10 days","$30 tonight","$53 tonight","$47 tonight","$70 in 20 days","$50 tonight","$45 tonight","$27 tonight","$16 tonight","0.5","stim/N000.png","65","65","0.599999996","2","3","2","2","2","3","0","1","0","0","0","2","1","2","0","0","1","2","2","1","3","3","1","0","1","1","0","3","0","1","0","0","1","1","0","1","0","1","0","0","0","0","1","0","0","0","0","agree","null","","","","","","","","stim/H110.png","null","","",""
"html-keyboard-response","39","561479","0.0-20.0-1.9","zh26we6crnx1vzv","60fda0fbed68b10930a7085f","1","27","heterosexual","245","6.0","Male","White or Caucasian ","No   ","Undergraduate degree ","No, currently not in school ","n/a","n/a","n/a","4","2","3","4","1","0:30","2:0","0:0","3:0","0:0","0:30","2:0","0:0","2:0","0:0","0:0","4:0","0:0","4:0","0:0","5:0","2:0","5:0","8","8","5","1","1","4","3","3","1","1","1","3","1","1","1","3","3","1","3","3","3","1","1","2","$85 in 14 days","$40 tonight","$67 tonight","$34 tonight","$15 tonight","$32 tonight","$83 tonight","$21 tonight","$48 tonight","$40 tonight","$25 tonight","$65 tonight","$55 in 10 days","$30 tonight","$53 tonight","$47 tonight","$70 in 20 days","$50 tonight","$45 tonight","$27 tonight","$16 tonight","0.5","stim/N000.png","65","65","0.599999996","2","3","2","2","2","3","0","1","0","0","0","2","1","2","0","0","1","2","2","1","3","3","1","0","1","1","0","3","0","1","0","0","1","1","0","1","0","1","0","0","0","0","1","0","0","0","0","agree","685","","","","","","","","<div style=""font-size:60px;"">?</div>","76","10","Practice","0.5"
"html-keyboard-response","40","604151","0.0-21.0","zh26we6crnx1vzv","60fda0fbed68b10930a7085f","1","27","heterosexual","245","6.0","Male","White or Caucasian ","No   ","Undergraduate degree ","No, currently not in school ","n/a","n/a","n/a","4","2","3","4","1","0:30","2:0","0:0","3:0","0:0","0:30","2:0","0:0","2:0","0:0","0:0","4:0","0:0","4:0","0:0","5:0","2:0","5:0","8","8","5","1","1","4","3","3","1","1","1","3","1","1","1","3","3","1","3","3","3","1","1","2","$85 in 14 days","$40 tonight","$67 tonight","$34 tonight","$15 tonight","$32 tonight","$83 tonight","$21 tonight","$48 tonight","$40 tonight","$25 tonight","$65 tonight","$55 in 10 days","$30 tonight","$53 tonight","$47 tonight","$70 in 20 days","$50 tonight","$45 tonight","$27 tonight","$16 tonight","0.5","stim/N000.png","65","65","0.599999996","2","3","2","2","2","3","0","1","0","0","0","2","1","2","0","0","1","2","2","1","3","3","1","0","1","1","0","3","0","1","0","0","1","1","0","1","0","1","0","0","0","0","1","0","0","0","0","agree","42171","","","","","","","","<p>You have now completed the practice series.</p><p>If you have any questions, please reload this page and read the instructions again.</p><p>Otherwise, you're ready to begin the study.</p><p><strong>REMEMBER</strong>: Press <b>L </b>when you think the model is muscular, and <b>A </b>if not. </p><p>Press SPACE when you're ready to start!</p>","32","","",""
"html-keyboard-response","41","605479","0.0-22.0","zh26we6crnx1vzv","60fda0fbed68b10930a7085f","1","27","heterosexual","245","6.0","Male","White or Caucasian ","No   ","Undergraduate degree ","No, currently not in school ","n/a","n/a","n/a","4","2","3","4","1","0:30","2:0","0:0","3:0","0:0","0:30","2:0","0:0","2:0","0:0","0:0","4:0","0:0","4:0","0:0","5:0","2:0","5:0","8","8","5","1","1","4","3","3","1","1","1","3","1","1","1","3","3","1","3","3","3","1","1","2","$85 in 14 days","$40 tonight","$67 tonight","$34 tonight","$15 tonight","$32 tonight","$83 tonight","$21 tonight","$48 tonight","$40 tonight","$25 tonight","$65 tonight","$55 in 10 days","$30 tonight","$53 tonight","$47 tonight","$70 in 20 days","$50 tonight","$45 tonight","$27 tonight","$16 tonight","0.5","stim/N000.png","65","65","0.599999996","2","3","2","2","2","3","0","1","0","0","0","2","1","2","0","0","1","2","2","1","3","3","1","0","1","1","0","3","0","1","0","0","1","1","0","1","0","1","0","0","0","0","1","0","0","0","0","agree","827","","","","","","","","<p>Block 1</p><p>Press SPACE to continue.</p>","32","","",""
"image-keyboard-response","42","606982","0.0-23.0-0.0","zh26we6crnx1vzv","60fda0fbed68b10930a7085f","1","27","heterosexual","245","6.0","Male","White or Caucasian ","No   ","Undergraduate degree ","No, currently not in school ","n/a","n/a","n/a","4","2","3","4","1","0:30","2:0","0:0","3:0","0:0","0:30","2:0","0:0","2:0","0:0","0:0","4:0","0:0","4:0","0:0","5:0","2:0","5:0","8","8","5","1","1","4","3","3","1","1","1","3","1","1","1","3","3","1","3","3","3","1","1","2","$85 in 14 days","$40 tonight","$67 tonight","$34 tonight","$15 tonight","$32 tonight","$83 tonight","$21 tonight","$48 tonight","$40 tonight","$25 tonight","$65 tonight","$55 in 10 days","$30 tonight","$53 tonight","$47 tonight","$70 in 20 days","$50 tonight","$45 tonight","$27 tonight","$16 tonight","0.5","stim/N000.png","65","65","0.599999996","2","3","2","2","2","3","0","1","0","0","0","2","1","2","0","0","1","2","2","1","3","3","1","0","1","1","0","3","0","1","0","0","1","1","0","1","0","1","0","0","0","0","1","0","0","0","0","agree","null","","","","","","","","stim/H130.png","null","","",""
"html-keyboard-response","43","607022","0.0-23.0-1.0","zh26we6crnx1vzv","60fda0fbed68b10930a7085f","1","27","heterosexual","245","6.0","Male","White or Caucasian ","No   ","Undergraduate degree ","No, currently not in school ","n/a","n/a","n/a","4","2","3","4","1","0:30","2:0","0:0","3:0","0:0","0:30","2:0","0:0","2:0","0:0","0:0","4:0","0:0","4:0","0:0","5:0","2:0","5:0","8","8","5","1","1","4","3","3","1","1","1","3","1","1","1","3","3","1","3","3","3","1","1","2","$85 in 14 days","$40 tonight","$67 tonight","$34 tonight","$15 tonight","$32 tonight","$83 tonight","$21 tonight","$48 tonight","$40 tonight","$25 tonight","$65 tonight","$55 in 10 days","$30 tonight","$53 tonight","$47 tonight","$70 in 20 days","$50 tonight","$45 tonight","$27 tonight","$16 tonight","0.5","stim/N000.png","65","65","0.599999996","2","3","2","2","2","3","0","1","0","0","0","2","1","2","0","0","1","2","2","1","3","3","1","0","1","1","0","3","0","1","0","0","1","1","0","1","0","1","0","0","0","0","1","0","0","0","0","agree","39","","","","","","","","<div style=""font-size:60px;"">?</div>","76","1","1","0.5"
"image-keyboard-response","44","608024","0.0-23.0-0.1","zh26we6crnx1vzv","60fda0fbed68b10930a7085f","1","27","heterosexual","245","6.0","Male","White or Caucasian ","No   ","Undergraduate degree ","No, currently not in school ","n/a","n/a","n/a","4","2","3","4","1","0:30","2:0","0:0","3:0","0:0","0:30","2:0","0:0","2:0","0:0","0:0","4:0","0:0","4:0","0:0","5:0","2:0","5:0","8","8","5","1","1","4","3","3","1","1","1","3","1","1","1","3","3","1","3","3","3","1","1","2","$85 in 14 days","$40 tonight","$67 tonight","$34 tonight","$15 tonight","$32 tonight","$83 tonight","$21 tonight","$48 tonight","$40 tonight","$25 tonight","$65 tonight","$55 in 10 days","$30 tonight","$53 tonight","$47 tonight","$70 in 20 days","$50 tonight","$45 tonight","$27 tonight","$16 tonight","0.5","stim/N000.png","65","65","0.599999996","2","3","2","2","2","3","0","1","0","0","0","2","1","2","0","0","1","2","2","1","3","3","1","0","1","1","0","3","0","1","0","0","1","1","0","1","0","1","0","0","0","0","1","0","0","0","0","agree","null","","","","","","","","stim/T160.png","null","","",""
"html-keyboard-response","45","608431","0.0-23.0-1.1","zh26we6crnx1vzv","60fda0fbed68b10930a7085f","1","27","heterosexual","245","6.0","Male","White or Caucasian ","No   ","Undergraduate degree ","No, currently not in school ","n/a","n/a","n/a","4","2","3","4","1","0:30","2:0","0:0","3:0","0:0","0:30","2:0","0:0","2:0","0:0","0:0","4:0","0:0","4:0","0:0","5:0","2:0","5:0","8","8","5","1","1","4","3","3","1","1","1","3","1","1","1","3","3","1","3","3","3","1","1","2","$85 in 14 days","$40 tonight","$67 tonight","$34 tonight","$15 tonight","$32 tonight","$83 tonight","$21 tonight","$48 tonight","$40 tonight","$25 tonight","$65 tonight","$55 in 10 days","$30 tonight","$53 tonight","$47 tonight","$70 in 20 days","$50 tonight","$45 tonight","$27 tonight","$16 tonight","0.5","stim/N000.png","65","65","0.599999996","2","3","2","2","2","3","0","1","0","0","0","2","1","2","0","0","1","2","2","1","3","3","1","0","1","1","0","3","0","1","0","0","1","1","0","1","0","1","0","0","0","0","1","0","0","0","0","agree","406","","","","","","","","<div style=""font-size:60px;"">?</div>","76","2","1","0.5"
"image-keyboard-response","46","609433","0.0-23.0-0.2","zh26we6crnx1vzv","60fda0fbed68b10930a7085f","1","27","heterosexual","245","6.0","Male","White or Caucasian ","No   ","Undergraduate degree ","No, currently not in school ","n/a","n/a","n/a","4","2","3","4","1","0:30","2:0","0:0","3:0","0:0","0:30","2:0","0:0","2:0","0:0","0:0","4:0","0:0","4:0","0:0","5:0","2:0","5:0","8","8","5","1","1","4","3","3","1","1","1","3","1","1","1","3","3","1","3","3","3","1","1","2","$85 in 14 days","$40 tonight","$67 tonight","$34 tonight","$15 tonight","$32 tonight","$83 tonight","$21 tonight","$48 tonight","$40 tonight","$25 tonight","$65 tonight","$55 in 10 days","$30 tonight","$53 tonight","$47 tonight","$70 in 20 days","$50 tonight","$45 tonight","$27 tonight","$16 tonight","0.5","stim/N000.png","65","65","0.599999996","2","3","2","2","2","3","0","1","0","0","0","2","1","2","0","0","1","2","2","1","3","3","1","0","1","1","0","3","0","1","0","0","1","1","0","1","0","1","0","0","0","0","1","0","0","0","0","agree","null","","","","","","","","stim/H270.png","null","","",""
"html-keyboard-response","47","609671","0.0-23.0-1.2","zh26we6crnx1vzv","60fda0fbed68b10930a7085f","1","27","heterosexual","245","6.0","Male","White or Caucasian ","No   ","Undergraduate degree ","No, currently not in school ","n/a","n/a","n/a","4","2","3","4","1","0:30","2:0","0:0","3:0","0:0","0:30","2:0","0:0","2:0","0:0","0:0","4:0","0:0","4:0","0:0","5:0","2:0","5:0","8","8","5","1","1","4","3","3","1","1","1","3","1","1","1","3","3","1","3","3","3","1","1","2","$85 in 14 days","$40 tonight","$67 tonight","$34 tonight","$15 tonight","$32 tonight","$83 tonight","$21 tonight","$48 tonight","$40 tonight","$25 tonight","$65 tonight","$55 in 10 days","$30 tonight","$53 tonight","$47 tonight","$70 in 20 days","$50 tonight","$45 tonight","$27 tonight","$16 tonight","0.5","stim/N000.png","65","65","0.599999996","2","3","2","2","2","3","0","1","0","0","0","2","1","2","0","0","1","2","2","1","3","3","1","0","1","1","0","3","0","1","0","0","1","1","0","1","0","1","0","0","0","0","1","0","0","0","0","agree","237","","","","","","","","<div style=""font-size:60px;"">?</div>","76","3","1","0.5"
"image-keyboard-response","48","610673","0.0-23.0-0.3","zh26we6crnx1vzv","60fda0fbed68b10930a7085f","1","27","heterosexual","245","6.0","Male","White or Caucasian ","No   ","Undergraduate degree ","No, currently not in school ","n/a","n/a","n/a","4","2","3","4","1","0:30","2:0","0:0","3:0","0:0","0:30","2:0","0:0","2:0","0:0","0:0","4:0","0:0","4:0","0:0","5:0","2:0","5:0","8","8","5","1","1","4","3","3","1","1","1","3","1","1","1","3","3","1","3","3","3","1","1","2","$85 in 14 days","$40 tonight","$67 tonight","$34 tonight","$15 tonight","$32 tonight","$83 tonight","$21 tonight","$48 tonight","$40 tonight","$25 tonight","$65 tonight","$55 in 10 days","$30 tonight","$53 tonight","$47 tonight","$70 in 20 days","$50 tonight","$45 tonight","$27 tonight","$16 tonight","0.5","stim/N000.png","65","65","0.599999996","2","3","2","2","2","3","0","1","0","0","0","2","1","2","0","0","1","2","2","1","3","3","1","0","1","1","0","3","0","1","0","0","1","1","0","1","0","1","0","0","0","0","1","0","0","0","0","agree","null","","","","","","","","stim/H090.png","null","","",""
"html-keyboard-response","49","611118","0.0-23.0-1.3","zh26we6crnx1vzv","60fda0fbed68b10930a7085f","1","27","heterosexual","245","6.0","Male","White or Caucasian ","No   ","Undergraduate degree ","No, currently not in school ","n/a","n/a","n/a","4","2","3","4","1","0:30","2:0","0:0","3:0","0:0","0:30","2:0","0:0","2:0","0:0","0:0","4:0","0:0","4:0","0:0","5:0","2:0","5:0","8","8","5","1","1","4","3","3","1","1","1","3","1","1","1","3","3","1","3","3","3","1","1","2","$85 in 14 days","$40 tonight","$67 tonight","$34 tonight","$15 tonight","$32 tonight","$83 tonight","$21 tonight","$48 tonight","$40 tonight","$25 tonight","$65 tonight","$55 in 10 days","$30 tonight","$53 tonight","$47 tonight","$70 in 20 days","$50 tonight","$45 tonight","$27 tonight","$16 tonight","0.5","stim/N000.png","65","65","0.599999996","2","3","2","2","2","3","0","1","0","0","0","2","1","2","0","0","1","2","2","1","3","3","1","0","1","1","0","3","0","1","0","0","1","1","0","1","0","1","0","0","0","0","1","0","0","0","0","agree","445","","","","","","","","<div style=""font-size:60px;"">?</div>","76","4","1","0.5"
"image-keyboard-response","50","612120","0.0-23.0-0.4","zh26we6crnx1vzv","60fda0fbed68b10930a7085f","1","27","heterosexual","245","6.0","Male","White or Caucasian ","No   ","Undergraduate degree ","No, currently not in school ","n/a","n/a","n/a","4","2","3","4","1","0:30","2:0","0:0","3:0","0:0","0:30","2:0","0:0","2:0","0:0","0:0","4:0","0:0","4:0","0:0","5:0","2:0","5:0","8","8","5","1","1","4","3","3","1","1","1","3","1","1","1","3","3","1","3","3","3","1","1","2","$85 in 14 days","$40 tonight","$67 tonight","$34 tonight","$15 tonight","$32 tonight","$83 tonight","$21 tonight","$48 tonight","$40 tonight","$25 tonight","$65 tonight","$55 in 10 days","$30 tonight","$53 tonight","$47 tonight","$70 in 20 days","$50 tonight","$45 tonight","$27 tonight","$16 tonight","0.5","stim/N000.png","65","65","0.599999996","2","3","2","2","2","3","0","1","0","0","0","2","1","2","0","0","1","2","2","1","3","3","1","0","1","1","0","3","0","1","0","0","1","1","0","1","0","1","0","0","0","0","1","0","0","0","0","agree","null","","","","","","","","stim/H040.png","null","","",""
"html-keyboard-response","51","612783","0.0-23.0-1.4","zh26we6crnx1vzv","60fda0fbed68b10930a7085f","1","27","heterosexual","245","6.0","Male","White or Caucasian ","No   ","Undergraduate degree ","No, currently not in school ","n/a","n/a","n/a","4","2","3","4","1","0:30","2:0","0:0","3:0","0:0","0:30","2:0","0:0","2:0","0:0","0:0","4:0","0:0","4:0","0:0","5:0","2:0","5:0","8","8","5","1","1","4","3","3","1","1","1","3","1","1","1","3","3","1","3","3","3","1","1","2","$85 in 14 days","$40 tonight","$67 tonight","$34 tonight","$15 tonight","$32 tonight","$83 tonight","$21 tonight","$48 tonight","$40 tonight","$25 tonight","$65 tonight","$55 in 10 days","$30 tonight","$53 tonight","$47 tonight","$70 in 20 days","$50 tonight","$45 tonight","$27 tonight","$16 tonight","0.5","stim/N000.png","65","65","0.599999996","2","3","2","2","2","3","0","1","0","0","0","2","1","2","0","0","1","2","2","1","3","3","1","0","1","1","0","3","0","1","0","0","1","1","0","1","0","1","0","0","0","0","1","0","0","0","0","agree","662","","","","","","","","<div style=""font-size:60px;"">?</div>","65","5","1","0.5"
"image-keyboard-response","52","613784","0.0-23.0-0.5","zh26we6crnx1vzv","60fda0fbed68b10930a7085f","1","27","heterosexual","245","6.0","Male","White or Caucasian ","No   ","Undergraduate degree ","No, currently not in school ","n/a","n/a","n/a","4","2","3","4","1","0:30","2:0","0:0","3:0","0:0","0:30","2:0","0:0","2:0","0:0","0:0","4:0","0:0","4:0","0:0","5:0","2:0","5:0","8","8","5","1","1","4","3","3","1","1","1","3","1","1","1","3","3","1","3","3","3","1","1","2","$85 in 14 days","$40 tonight","$67 tonight","$34 tonight","$15 tonight","$32 tonight","$83 tonight","$21 tonight","$48 tonight","$40 tonight","$25 tonight","$65 tonight","$55 in 10 days","$30 tonight","$53 tonight","$47 tonight","$70 in 20 days","$50 tonight","$45 tonight","$27 tonight","$16 tonight","0.5","stim/N000.png","65","65","0.599999996","2","3","2","2","2","3","0","1","0","0","0","2","1","2","0","0","1","2","2","1","3","3","1","0","1","1","0","3","0","1","0","0","1","1","0","1","0","1","0","0","0","0","1","0","0","0","0","agree","null","","","","","","","","stim/H180.png","null","","",""
"html-keyboard-response","53","613926","0.0-23.0-1.5","zh26we6crnx1vzv","60fda0fbed68b10930a7085f","1","27","heterosexual","245","6.0","Male","White or Caucasian ","No   ","Undergraduate degree ","No, currently not in school ","n/a","n/a","n/a","4","2","3","4","1","0:30","2:0","0:0","3:0","0:0","0:30","2:0","0:0","2:0","0:0","0:0","4:0","0:0","4:0","0:0","5:0","2:0","5:0","8","8","5","1","1","4","3","3","1","1","1","3","1","1","1","3","3","1","3","3","3","1","1","2","$85 in 14 days","$40 tonight","$67 tonight","$34 tonight","$15 tonight","$32 tonight","$83 tonight","$21 tonight","$48 tonight","$40 tonight","$25 tonight","$65 tonight","$55 in 10 days","$30 tonight","$53 tonight","$47 tonight","$70 in 20 days","$50 tonight","$45 tonight","$27 tonight","$16 tonight","0.5","stim/N000.png","65","65","0.599999996","2","3","2","2","2","3","0","1","0","0","0","2","1","2","0","0","1","2","2","1","3","3","1","0","1","1","0","3","0","1","0","0","1","1","0","1","0","1","0","0","0","0","1","0","0","0","0","agree","142","","","","","","","","<div style=""font-size:60px;"">?</div>","76","6","1","0.5"
"image-keyboard-response","54","614928","0.0-23.0-0.6","zh26we6crnx1vzv","60fda0fbed68b10930a7085f","1","27","heterosexual","245","6.0","Male","White or Caucasian ","No   ","Undergraduate degree ","No, currently not in school ","n/a","n/a","n/a","4","2","3","4","1","0:30","2:0","0:0","3:0","0:0","0:30","2:0","0:0","2:0","0:0","0:0","4:0","0:0","4:0","0:0","5:0","2:0","5:0","8","8","5","1","1","4","3","3","1","1","1","3","1","1","1","3","3","1","3","3","3","1","1","2","$85 in 14 days","$40 tonight","$67 tonight","$34 tonight","$15 tonight","$32 tonight","$83 tonight","$21 tonight","$48 tonight","$40 tonight","$25 tonight","$65 tonight","$55 in 10 days","$30 tonight","$53 tonight","$47 tonight","$70 in 20 days","$50 tonight","$45 tonight","$27 tonight","$16 tonight","0.5","stim/N000.png","65","65","0.599999996","2","3","2","2","2","3","0","1","0","0","0","2","1","2","0","0","1","2","2","1","3","3","1","0","1","1","0","3","0","1","0","0","1","1","0","1","0","1","0","0","0","0","1","0","0","0","0","agree","null","","","","","","","","stim/T180.png","null","","",""
"html-keyboard-response","55","615374","0.0-23.0-1.6","zh26we6crnx1vzv","60fda0fbed68b10930a7085f","1","27","heterosexual","245","6.0","Male","White or Caucasian ","No   ","Undergraduate degree ","No, currently not in school ","n/a","n/a","n/a","4","2","3","4","1","0:30","2:0","0:0","3:0","0:0","0:30","2:0","0:0","2:0","0:0","0:0","4:0","0:0","4:0","0:0","5:0","2:0","5:0","8","8","5","1","1","4","3","3","1","1","1","3","1","1","1","3","3","1","3","3","3","1","1","2","$85 in 14 days","$40 tonight","$67 tonight","$34 tonight","$15 tonight","$32 tonight","$83 tonight","$21 tonight","$48 tonight","$40 tonight","$25 tonight","$65 tonight","$55 in 10 days","$30 tonight","$53 tonight","$47 tonight","$70 in 20 days","$50 tonight","$45 tonight","$27 tonight","$16 tonight","0.5","stim/N000.png","65","65","0.599999996","2","3","2","2","2","3","0","1","0","0","0","2","1","2","0","0","1","2","2","1","3","3","1","0","1","1","0","3","0","1","0","0","1","1","0","1","0","1","0","0","0","0","1","0","0","0","0","agree","446","","","","","","","","<div style=""font-size:60px;"">?</div>","65","7","1","0.5"
"image-keyboard-response","56","616377","0.0-23.0-0.7","zh26we6crnx1vzv","60fda0fbed68b10930a7085f","1","27","heterosexual","245","6.0","Male","White or Caucasian ","No   ","Undergraduate degree ","No, currently not in school ","n/a","n/a","n/a","4","2","3","4","1","0:30","2:0","0:0","3:0","0:0","0:30","2:0","0:0","2:0","0:0","0:0","4:0","0:0","4:0","0:0","5:0","2:0","5:0","8","8","5","1","1","4","3","3","1","1","1","3","1","1","1","3","3","1","3","3","3","1","1","2","$85 in 14 days","$40 tonight","$67 tonight","$34 tonight","$15 tonight","$32 tonight","$83 tonight","$21 tonight","$48 tonight","$40 tonight","$25 tonight","$65 tonight","$55 in 10 days","$30 tonight","$53 tonight","$47 tonight","$70 in 20 days","$50 tonight","$45 tonight","$27 tonight","$16 tonight","0.5","stim/N000.png","65","65","0.599999996","2","3","2","2","2","3","0","1","0","0","0","2","1","2","0","0","1","2","2","1","3","3","1","0","1","1","0","3","0","1","0","0","1","1","0","1","0","1","0","0","0","0","1","0","0","0","0","agree","null","","","","","","","","stim/H230.png","null","","",""
"html-keyboard-response","57","616726","0.0-23.0-1.7","zh26we6crnx1vzv","60fda0fbed68b10930a7085f","1","27","heterosexual","245","6.0","Male","White or Caucasian ","No   ","Undergraduate degree ","No, currently not in school ","n/a","n/a","n/a","4","2","3","4","1","0:30","2:0","0:0","3:0","0:0","0:30","2:0","0:0","2:0","0:0","0:0","4:0","0:0","4:0","0:0","5:0","2:0","5:0","8","8","5","1","1","4","3","3","1","1","1","3","1","1","1","3","3","1","3","3","3","1","1","2","$85 in 14 days","$40 tonight","$67 tonight","$34 tonight","$15 tonight","$32 tonight","$83 tonight","$21 tonight","$48 tonight","$40 tonight","$25 tonight","$65 tonight","$55 in 10 days","$30 tonight","$53 tonight","$47 tonight","$70 in 20 days","$50 tonight","$45 tonight","$27 tonight","$16 tonight","0.5","stim/N000.png","65","65","0.599999996","2","3","2","2","2","3","0","1","0","0","0","2","1","2","0","0","1","2","2","1","3","3","1","0","1","1","0","3","0","1","0","0","1","1","0","1","0","1","0","0","0","0","1","0","0","0","0","agree","349","","","","","","","","<div style=""font-size:60px;"">?</div>","76","8","1","0.5"
"image-keyboard-response","58","617728","0.0-23.0-0.8","zh26we6crnx1vzv","60fda0fbed68b10930a7085f","1","27","heterosexual","245","6.0","Male","White or Caucasian ","No   ","Undergraduate degree ","No, currently not in school ","n/a","n/a","n/a","4","2","3","4","1","0:30","2:0","0:0","3:0","0:0","0:30","2:0","0:0","2:0","0:0","0:0","4:0","0:0","4:0","0:0","5:0","2:0","5:0","8","8","5","1","1","4","3","3","1","1","1","3","1","1","1","3","3","1","3","3","3","1","1","2","$85 in 14 days","$40 tonight","$67 tonight","$34 tonight","$15 tonight","$32 tonight","$83 tonight","$21 tonight","$48 tonight","$40 tonight","$25 tonight","$65 tonight","$55 in 10 days","$30 tonight","$53 tonight","$47 tonight","$70 in 20 days","$50 tonight","$45 tonight","$27 tonight","$16 tonight","0.5","stim/N000.png","65","65","0.599999996","2","3","2","2","2","3","0","1","0","0","0","2","1","2","0","0","1","2","2","1","3","3","1","0","1","1","0","3","0","1","0","0","1","1","0","1","0","1","0","0","0","0","1","0","0","0","0","agree","null","","","","","","","","stim/T060.png","null","","",""
"html-keyboard-response","59","618367","0.0-23.0-1.8","zh26we6crnx1vzv","60fda0fbed68b10930a7085f","1","27","heterosexual","245","6.0","Male","White or Caucasian ","No   ","Undergraduate degree ","No, currently not in school ","n/a","n/a","n/a","4","2","3","4","1","0:30","2:0","0:0","3:0","0:0","0:30","2:0","0:0","2:0","0:0","0:0","4:0","0:0","4:0","0:0","5:0","2:0","5:0","8","8","5","1","1","4","3","3","1","1","1","3","1","1","1","3","3","1","3","3","3","1","1","2","$85 in 14 days","$40 tonight","$67 tonight","$34 tonight","$15 tonight","$32 tonight","$83 tonight","$21 tonight","$48 tonight","$40 tonight","$25 tonight","$65 tonight","$55 in 10 days","$30 tonight","$53 tonight","$47 tonight","$70 in 20 days","$50 tonight","$45 tonight","$27 tonight","$16 tonight","0.5","stim/N000.png","65","65","0.599999996","2","3","2","2","2","3","0","1","0","0","0","2","1","2","0","0","1","2","2","1","3","3","1","0","1","1","0","3","0","1","0","0","1","1","0","1","0","1","0","0","0","0","1","0","0","0","0","agree","638","","","","","","","","<div style=""font-size:60px;"">?</div>","76","9","1","0.5"
"image-keyboard-response","60","619368","0.0-23.0-0.9","zh26we6crnx1vzv","60fda0fbed68b10930a7085f","1","27","heterosexual","245","6.0","Male","White or Caucasian ","No   ","Undergraduate degree ","No, currently not in school ","n/a","n/a","n/a","4","2","3","4","1","0:30","2:0","0:0","3:0","0:0","0:30","2:0","0:0","2:0","0:0","0:0","4:0","0:0","4:0","0:0","5:0","2:0","5:0","8","8","5","1","1","4","3","3","1","1","1","3","1","1","1","3","3","1","3","3","3","1","1","2","$85 in 14 days","$40 tonight","$67 tonight","$34 tonight","$15 tonight","$32 tonight","$83 tonight","$21 tonight","$48 tonight","$40 tonight","$25 tonight","$65 tonight","$55 in 10 days","$30 tonight","$53 tonight","$47 tonight","$70 in 20 days","$50 tonight","$45 tonight","$27 tonight","$16 tonight","0.5","stim/N000.png","65","65","0.599999996","2","3","2","2","2","3","0","1","0","0","0","2","1","2","0","0","1","2","2","1","3","3","1","0","1","1","0","3","0","1","0","0","1","1","0","1","0","1","0","0","0","0","1","0","0","0","0","agree","null","","","","","","","","stim/H030.png","null","","",""
"html-keyboard-response","61","620039","0.0-23.0-1.9","zh26we6crnx1vzv","60fda0fbed68b10930a7085f","1","27","heterosexual","245","6.0","Male","White or Caucasian ","No   ","Undergraduate degree ","No, currently not in school ","n/a","n/a","n/a","4","2","3","4","1","0:30","2:0","0:0","3:0","0:0","0:30","2:0","0:0","2:0","0:0","0:0","4:0","0:0","4:0","0:0","5:0","2:0","5:0","8","8","5","1","1","4","3","3","1","1","1","3","1","1","1","3","3","1","3","3","3","1","1","2","$85 in 14 days","$40 tonight","$67 tonight","$34 tonight","$15 tonight","$32 tonight","$83 tonight","$21 tonight","$48 tonight","$40 tonight","$25 tonight","$65 tonight","$55 in 10 days","$30 tonight","$53 tonight","$47 tonight","$70 in 20 days","$50 tonight","$45 tonight","$27 tonight","$16 tonight","0.5","stim/N000.png","65","65","0.599999996","2","3","2","2","2","3","0","1","0","0","0","2","1","2","0","0","1","2","2","1","3","3","1","0","1","1","0","3","0","1","0","0","1","1","0","1","0","1","0","0","0","0","1","0","0","0","0","agree","670","","","","","","","","<div style=""font-size:60px;"">?</div>","76","10","1","0.5"
"image-keyboard-response","62","621040","0.0-23.0-0.10","zh26we6crnx1vzv","60fda0fbed68b10930a7085f","1","27","heterosexual","245","6.0","Male","White or Caucasian ","No   ","Undergraduate degree ","No, currently not in school ","n/a","n/a","n/a","4","2","3","4","1","0:30","2:0","0:0","3:0","0:0","0:30","2:0","0:0","2:0","0:0","0:0","4:0","0:0","4:0","0:0","5:0","2:0","5:0","8","8","5","1","1","4","3","3","1","1","1","3","1","1","1","3","3","1","3","3","3","1","1","2","$85 in 14 days","$40 tonight","$67 tonight","$34 tonight","$15 tonight","$32 tonight","$83 tonight","$21 tonight","$48 tonight","$40 tonight","$25 tonight","$65 tonight","$55 in 10 days","$30 tonight","$53 tonight","$47 tonight","$70 in 20 days","$50 tonight","$45 tonight","$27 tonight","$16 tonight","0.5","stim/N000.png","65","65","0.599999996","2","3","2","2","2","3","0","1","0","0","0","2","1","2","0","0","1","2","2","1","3","3","1","0","1","1","0","3","0","1","0","0","1","1","0","1","0","1","0","0","0","0","1","0","0","0","0","agree","null","","","","","","","","stim/T240.png","null","","",""
"html-keyboard-response","63","621430","0.0-23.0-1.10","zh26we6crnx1vzv","60fda0fbed68b10930a7085f","1","27","heterosexual","245","6.0","Male","White or Caucasian ","No   ","Undergraduate degree ","No, currently not in school ","n/a","n/a","n/a","4","2","3","4","1","0:30","2:0","0:0","3:0","0:0","0:30","2:0","0:0","2:0","0:0","0:0","4:0","0:0","4:0","0:0","5:0","2:0","5:0","8","8","5","1","1","4","3","3","1","1","1","3","1","1","1","3","3","1","3","3","3","1","1","2","$85 in 14 days","$40 tonight","$67 tonight","$34 tonight","$15 tonight","$32 tonight","$83 tonight","$21 tonight","$48 tonight","$40 tonight","$25 tonight","$65 tonight","$55 in 10 days","$30 tonight","$53 tonight","$47 tonight","$70 in 20 days","$50 tonight","$45 tonight","$27 tonight","$16 tonight","0.5","stim/N000.png","65","65","0.599999996","2","3","2","2","2","3","0","1","0","0","0","2","1","2","0","0","1","2","2","1","3","3","1","0","1","1","0","3","0","1","0","0","1","1","0","1","0","1","0","0","0","0","1","0","0","0","0","agree","388.9999999998836","","","","","","","","<div style=""font-size:60px;"">?</div>","65","11","1","0.5"
"image-keyboard-response","64","622432","0.0-23.0-0.11","zh26we6crnx1vzv","60fda0fbed68b10930a7085f","1","27","heterosexual","245","6.0","Male","White or Caucasian ","No   ","Undergraduate degree ","No, currently not in school ","n/a","n/a","n/a","4","2","3","4","1","0:30","2:0","0:0","3:0","0:0","0:30","2:0","0:0","2:0","0:0","0:0","4:0","0:0","4:0","0:0","5:0","2:0","5:0","8","8","5","1","1","4","3","3","1","1","1","3","1","1","1","3","3","1","3","3","3","1","1","2","$85 in 14 days","$40 tonight","$67 tonight","$34 tonight","$15 tonight","$32 tonight","$83 tonight","$21 tonight","$48 tonight","$40 tonight","$25 tonight","$65 tonight","$55 in 10 days","$30 tonight","$53 tonight","$47 tonight","$70 in 20 days","$50 tonight","$45 tonight","$27 tonight","$16 tonight","0.5","stim/N000.png","65","65","0.599999996","2","3","2","2","2","3","0","1","0","0","0","2","1","2","0","0","1","2","2","1","3","3","1","0","1","1","0","3","0","1","0","0","1","1","0","1","0","1","0","0","0","0","1","0","0","0","0","agree","null","","","","","","","","stim/H290.png","null","","",""
"html-keyboard-response","65","622854","0.0-23.0-1.11","zh26we6crnx1vzv","60fda0fbed68b10930a7085f","1","27","heterosexual","245","6.0","Male","White or Caucasian ","No   ","Undergraduate degree ","No, currently not in school ","n/a","n/a","n/a","4","2","3","4","1","0:30","2:0","0:0","3:0","0:0","0:30","2:0","0:0","2:0","0:0","0:0","4:0","0:0","4:0","0:0","5:0","2:0","5:0","8","8","5","1","1","4","3","3","1","1","1","3","1","1","1","3","3","1","3","3","3","1","1","2","$85 in 14 days","$40 tonight","$67 tonight","$34 tonight","$15 tonight","$32 tonight","$83 tonight","$21 tonight","$48 tonight","$40 tonight","$25 tonight","$65 tonight","$55 in 10 days","$30 tonight","$53 tonight","$47 tonight","$70 in 20 days","$50 tonight","$45 tonight","$27 tonight","$16 tonight","0.5","stim/N000.png","65","65","0.599999996","2","3","2","2","2","3","0","1","0","0","0","2","1","2","0","0","1","2","2","1","3","3","1","0","1","1","0","3","0","1","0","0","1","1","0","1","0","1","0","0","0","0","1","0","0","0","0","agree","421","","","","","","","","<div style=""font-size:60px;"">?</div>","76","12","1","0.5"
"image-keyboard-response","66","623855","0.0-23.0-0.12","zh26we6crnx1vzv","60fda0fbed68b10930a7085f","1","27","heterosexual","245","6.0","Male","White or Caucasian ","No   ","Undergraduate degree ","No, currently not in school ","n/a","n/a","n/a","4","2","3","4","1","0:30","2:0","0:0","3:0","0:0","0:30","2:0","0:0","2:0","0:0","0:0","4:0","0:0","4:0","0:0","5:0","2:0","5:0","8","8","5","1","1","4","3","3","1","1","1","3","1","1","1","3","3","1","3","3","3","1","1","2","$85 in 14 days","$40 tonight","$67 tonight","$34 tonight","$15 tonight","$32 tonight","$83 tonight","$21 tonight","$48 tonight","$40 tonight","$25 tonight","$65 tonight","$55 in 10 days","$30 tonight","$53 tonight","$47 tonight","$70 in 20 days","$50 tonight","$45 tonight","$27 tonight","$16 tonight","0.5","stim/N000.png","65","65","0.599999996","2","3","2","2","2","3","0","1","0","0","0","2","1","2","0","0","1","2","2","1","3","3","1","0","1","1","0","3","0","1","0","0","1","1","0","1","0","1","0","0","0","0","1","0","0","0","0","agree","null","","","","","","","","stim/T100.png","null","","",""
"html-keyboard-response","67","624302","0.0-23.0-1.12","zh26we6crnx1vzv","60fda0fbed68b10930a7085f","1","27","heterosexual","245","6.0","Male","White or Caucasian ","No   ","Undergraduate degree ","No, currently not in school ","n/a","n/a","n/a","4","2","3","4","1","0:30","2:0","0:0","3:0","0:0","0:30","2:0","0:0","2:0","0:0","0:0","4:0","0:0","4:0","0:0","5:0","2:0","5:0","8","8","5","1","1","4","3","3","1","1","1","3","1","1","1","3","3","1","3","3","3","1","1","2","$85 in 14 days","$40 tonight","$67 tonight","$34 tonight","$15 tonight","$32 tonight","$83 tonight","$21 tonight","$48 tonight","$40 tonight","$25 tonight","$65 tonight","$55 in 10 days","$30 tonight","$53 tonight","$47 tonight","$70 in 20 days","$50 tonight","$45 tonight","$27 tonight","$16 tonight","0.5","stim/N000.png","65","65","0.599999996","2","3","2","2","2","3","0","1","0","0","0","2","1","2","0","0","1","2","2","1","3","3","1","0","1","1","0","3","0","1","0","0","1","1","0","1","0","1","0","0","0","0","1","0","0","0","0","agree","447","","","","","","","","<div style=""font-size:60px;"">?</div>","65","13","1","0.5"
"image-keyboard-response","68","625304","0.0-23.0-0.13","zh26we6crnx1vzv","60fda0fbed68b10930a7085f","1","27","heterosexual","245","6.0","Male","White or Caucasian ","No   ","Undergraduate degree ","No, currently not in school ","n/a","n/a","n/a","4","2","3","4","1","0:30","2:0","0:0","3:0","0:0","0:30","2:0","0:0","2:0","0:0","0:0","4:0","0:0","4:0","0:0","5:0","2:0","5:0","8","8","5","1","1","4","3","3","1","1","1","3","1","1","1","3","3","1","3","3","3","1","1","2","$85 in 14 days","$40 tonight","$67 tonight","$34 tonight","$15 tonight","$32 tonight","$83 tonight","$21 tonight","$48 tonight","$40 tonight","$25 tonight","$65 tonight","$55 in 10 days","$30 tonight","$53 tonight","$47 tonight","$70 in 20 days","$50 tonight","$45 tonight","$27 tonight","$16 tonight","0.5","stim/N000.png","65","65","0.599999996","2","3","2","2","2","3","0","1","0","0","0","2","1","2","0","0","1","2","2","1","3","3","1","0","1","1","0","3","0","1","0","0","1","1","0","1","0","1","0","0","0","0","1","0","0","0","0","agree","null","","","","","","","","stim/T180.png","null","","",""
"html-keyboard-response","69","625694","0.0-23.0-1.13","zh26we6crnx1vzv","60fda0fbed68b10930a7085f","1","27","heterosexual","245","6.0","Male","White or Caucasian ","No   ","Undergraduate degree ","No, currently not in school ","n/a","n/a","n/a","4","2","3","4","1","0:30","2:0","0:0","3:0","0:0","0:30","2:0","0:0","2:0","0:0","0:0","4:0","0:0","4:0","0:0","5:0","2:0","5:0","8","8","5","1","1","4","3","3","1","1","1","3","1","1","1","3","3","1","3","3","3","1","1","2","$85 in 14 days","$40 tonight","$67 tonight","$34 tonight","$15 tonight","$32 tonight","$83 tonight","$21 tonight","$48 tonight","$40 tonight","$25 tonight","$65 tonight","$55 in 10 days","$30 tonight","$53 tonight","$47 tonight","$70 in 20 days","$50 tonight","$45 tonight","$27 tonight","$16 tonight","0.5","stim/N000.png","65","65","0.599999996","2","3","2","2","2","3","0","1","0","0","0","2","1","2","0","0","1","2","2","1","3","3","1","0","1","1","0","3","0","1","0","0","1","1","0","1","0","1","0","0","0","0","1","0","0","0","0","agree","389","","","","","","","","<div style=""font-size:60px;"">?</div>","65","14","1","0.5"
"image-keyboard-response","70","626696","0.0-23.0-0.14","zh26we6crnx1vzv","60fda0fbed68b10930a7085f","1","27","heterosexual","245","6.0","Male","White or Caucasian ","No   ","Undergraduate degree ","No, currently not in school ","n/a","n/a","n/a","4","2","3","4","1","0:30","2:0","0:0","3:0","0:0","0:30","2:0","0:0","2:0","0:0","0:0","4:0","0:0","4:0","0:0","5:0","2:0","5:0","8","8","5","1","1","4","3","3","1","1","1","3","1","1","1","3","3","1","3","3","3","1","1","2","$85 in 14 days","$40 tonight","$67 tonight","$34 tonight","$15 tonight","$32 tonight","$83 tonight","$21 tonight","$48 tonight","$40 tonight","$25 tonight","$65 tonight","$55 in 10 days","$30 tonight","$53 tonight","$47 tonight","$70 in 20 days","$50 tonight","$45 tonight","$27 tonight","$16 tonight","0.5","stim/N000.png","65","65","0.599999996","2","3","2","2","2","3","0","1","0","0","0","2","1","2","0","0","1","2","2","1","3","3","1","0","1","1","0","3","0","1","0","0","1","1","0","1","0","1","0","0","0","0","1","0","0","0","0","agree","null","","","","","","","","stim/T090.png","null","","",""
"html-keyboard-response","71","627343","0.0-23.0-1.14","zh26we6crnx1vzv","60fda0fbed68b10930a7085f","1","27","heterosexual","245","6.0","Male","White or Caucasian ","No   ","Undergraduate degree ","No, currently not in school ","n/a","n/a","n/a","4","2","3","4","1","0:30","2:0","0:0","3:0","0:0","0:30","2:0","0:0","2:0","0:0","0:0","4:0","0:0","4:0","0:0","5:0","2:0","5:0","8","8","5","1","1","4","3","3","1","1","1","3","1","1","1","3","3","1","3","3","3","1","1","2","$85 in 14 days","$40 tonight","$67 tonight","$34 tonight","$15 tonight","$32 tonight","$83 tonight","$21 tonight","$48 tonight","$40 tonight","$25 tonight","$65 tonight","$55 in 10 days","$30 tonight","$53 tonight","$47 tonight","$70 in 20 days","$50 tonight","$45 tonight","$27 tonight","$16 tonight","0.5","stim/N000.png","65","65","0.599999996","2","3","2","2","2","3","0","1","0","0","0","2","1","2","0","0","1","2","2","1","3","3","1","0","1","1","0","3","0","1","0","0","1","1","0","1","0","1","0","0","0","0","1","0","0","0","0","agree","645","","","","","","","","<div style=""font-size:60px;"">?</div>","65","15","1","0.5"
"image-keyboard-response","72","628344","0.0-23.0-0.15","zh26we6crnx1vzv","60fda0fbed68b10930a7085f","1","27","heterosexual","245","6.0","Male","White or Caucasian ","No   ","Undergraduate degree ","No, currently not in school ","n/a","n/a","n/a","4","2","3","4","1","0:30","2:0","0:0","3:0","0:0","0:30","2:0","0:0","2:0","0:0","0:0","4:0","0:0","4:0","0:0","5:0","2:0","5:0","8","8","5","1","1","4","3","3","1","1","1","3","1","1","1","3","3","1","3","3","3","1","1","2","$85 in 14 days","$40 tonight","$67 tonight","$34 tonight","$15 tonight","$32 tonight","$83 tonight","$21 tonight","$48 tonight","$40 tonight","$25 tonight","$65 tonight","$55 in 10 days","$30 tonight","$53 tonight","$47 tonight","$70 in 20 days","$50 tonight","$45 tonight","$27 tonight","$16 tonight","0.5","stim/N000.png","65","65","0.599999996","2","3","2","2","2","3","0","1","0","0","0","2","1","2","0","0","1","2","2","1","3","3","1","0","1","1","0","3","0","1","0","0","1","1","0","1","0","1","0","0","0","0","1","0","0","0","0","agree","null","","","","","","","","stim/T070.png","null","","",""
"html-keyboard-response","73","628854","0.0-23.0-1.15","zh26we6crnx1vzv","60fda0fbed68b10930a7085f","1","27","heterosexual","245","6.0","Male","White or Caucasian ","No   ","Undergraduate degree ","No, currently not in school ","n/a","n/a","n/a","4","2","3","4","1","0:30","2:0","0:0","3:0","0:0","0:30","2:0","0:0","2:0","0:0","0:0","4:0","0:0","4:0","0:0","5:0","2:0","5:0","8","8","5","1","1","4","3","3","1","1","1","3","1","1","1","3","3","1","3","3","3","1","1","2","$85 in 14 days","$40 tonight","$67 tonight","$34 tonight","$15 tonight","$32 tonight","$83 tonight","$21 tonight","$48 tonight","$40 tonight","$25 tonight","$65 tonight","$55 in 10 days","$30 tonight","$53 tonight","$47 tonight","$70 in 20 days","$50 tonight","$45 tonight","$27 tonight","$16 tonight","0.5","stim/N000.png","65","65","0.599999996","2","3","2","2","2","3","0","1","0","0","0","2","1","2","0","0","1","2","2","1","3","3","1","0","1","1","0","3","0","1","0","0","1","1","0","1","0","1","0","0","0","0","1","0","0","0","0","agree","509","","","","","","","","<div style=""font-size:60px;"">?</div>","65","16","1","0.5"
"image-keyboard-response","74","629855","0.0-23.0-0.16","zh26we6crnx1vzv","60fda0fbed68b10930a7085f","1","27","heterosexual","245","6.0","Male","White or Caucasian ","No   ","Undergraduate degree ","No, currently not in school ","n/a","n/a","n/a","4","2","3","4","1","0:30","2:0","0:0","3:0","0:0","0:30","2:0","0:0","2:0","0:0","0:0","4:0","0:0","4:0","0:0","5:0","2:0","5:0","8","8","5","1","1","4","3","3","1","1","1","3","1","1","1","3","3","1","3","3","3","1","1","2","$85 in 14 days","$40 tonight","$67 tonight","$34 tonight","$15 tonight","$32 tonight","$83 tonight","$21 tonight","$48 tonight","$40 tonight","$25 tonight","$65 tonight","$55 in 10 days","$30 tonight","$53 tonight","$47 tonight","$70 in 20 days","$50 tonight","$45 tonight","$27 tonight","$16 tonight","0.5","stim/N000.png","65","65","0.599999996","2","3","2","2","2","3","0","1","0","0","0","2","1","2","0","0","1","2","2","1","3","3","1","0","1","1","0","3","0","1","0","0","1","1","0","1","0","1","0","0","0","0","1","0","0","0","0","agree","null","","","","","","","","stim/H230.png","null","","",""
"html-keyboard-response","75","630246","0.0-23.0-1.16","zh26we6crnx1vzv","60fda0fbed68b10930a7085f","1","27","heterosexual","245","6.0","Male","White or Caucasian ","No   ","Undergraduate degree ","No, currently not in school ","n/a","n/a","n/a","4","2","3","4","1","0:30","2:0","0:0","3:0","0:0","0:30","2:0","0:0","2:0","0:0","0:0","4:0","0:0","4:0","0:0","5:0","2:0","5:0","8","8","5","1","1","4","3","3","1","1","1","3","1","1","1","3","3","1","3","3","3","1","1","2","$85 in 14 days","$40 tonight","$67 tonight","$34 tonight","$15 tonight","$32 tonight","$83 tonight","$21 tonight","$48 tonight","$40 tonight","$25 tonight","$65 tonight","$55 in 10 days","$30 tonight","$53 tonight","$47 tonight","$70 in 20 days","$50 tonight","$45 tonight","$27 tonight","$16 tonight","0.5","stim/N000.png","65","65","0.599999996","2","3","2","2","2","3","0","1","0","0","0","2","1","2","0","0","1","2","2","1","3","3","1","0","1","1","0","3","0","1","0","0","1","1","0","1","0","1","0","0","0","0","1","0","0","0","0","agree","391","","","","","","","","<div style=""font-size:60px;"">?</div>","76","17","1","0.5"
"image-keyboard-response","76","631248","0.0-23.0-0.17","zh26we6crnx1vzv","60fda0fbed68b10930a7085f","1","27","heterosexual","245","6.0","Male","White or Caucasian ","No   ","Undergraduate degree ","No, currently not in school ","n/a","n/a","n/a","4","2","3","4","1","0:30","2:0","0:0","3:0","0:0","0:30","2:0","0:0","2:0","0:0","0:0","4:0","0:0","4:0","0:0","5:0","2:0","5:0","8","8","5","1","1","4","3","3","1","1","1","3","1","1","1","3","3","1","3","3","3","1","1","2","$85 in 14 days","$40 tonight","$67 tonight","$34 tonight","$15 tonight","$32 tonight","$83 tonight","$21 tonight","$48 tonight","$40 tonight","$25 tonight","$65 tonight","$55 in 10 days","$30 tonight","$53 tonight","$47 tonight","$70 in 20 days","$50 tonight","$45 tonight","$27 tonight","$16 tonight","0.5","stim/N000.png","65","65","0.599999996","2","3","2","2","2","3","0","1","0","0","0","2","1","2","0","0","1","2","2","1","3","3","1","0","1","1","0","3","0","1","0","0","1","1","0","1","0","1","0","0","0","0","1","0","0","0","0","agree","null","","","","","","","","stim/T270.png","null","","",""
"html-keyboard-response","77","631687","0.0-23.0-1.17","zh26we6crnx1vzv","60fda0fbed68b10930a7085f","1","27","heterosexual","245","6.0","Male","White or Caucasian ","No   ","Undergraduate degree ","No, currently not in school ","n/a","n/a","n/a","4","2","3","4","1","0:30","2:0","0:0","3:0","0:0","0:30","2:0","0:0","2:0","0:0","0:0","4:0","0:0","4:0","0:0","5:0","2:0","5:0","8","8","5","1","1","4","3","3","1","1","1","3","1","1","1","3","3","1","3","3","3","1","1","2","$85 in 14 days","$40 tonight","$67 tonight","$34 tonight","$15 tonight","$32 tonight","$83 tonight","$21 tonight","$48 tonight","$40 tonight","$25 tonight","$65 tonight","$55 in 10 days","$30 tonight","$53 tonight","$47 tonight","$70 in 20 days","$50 tonight","$45 tonight","$27 tonight","$16 tonight","0.5","stim/N000.png","65","65","0.599999996","2","3","2","2","2","3","0","1","0","0","0","2","1","2","0","0","1","2","2","1","3","3","1","0","1","1","0","3","0","1","0","0","1","1","0","1","0","1","0","0","0","0","1","0","0","0","0","agree","438","","","","","","","","<div style=""font-size:60px;"">?</div>","65","18","1","0.5"
"image-keyboard-response","78","632688","0.0-23.0-0.18","zh26we6crnx1vzv","60fda0fbed68b10930a7085f","1","27","heterosexual","245","6.0","Male","White or Caucasian ","No   ","Undergraduate degree ","No, currently not in school ","n/a","n/a","n/a","4","2","3","4","1","0:30","2:0","0:0","3:0","0:0","0:30","2:0","0:0","2:0","0:0","0:0","4:0","0:0","4:0","0:0","5:0","2:0","5:0","8","8","5","1","1","4","3","3","1","1","1","3","1","1","1","3","3","1","3","3","3","1","1","2","$85 in 14 days","$40 tonight","$67 tonight","$34 tonight","$15 tonight","$32 tonight","$83 tonight","$21 tonight","$48 tonight","$40 tonight","$25 tonight","$65 tonight","$55 in 10 days","$30 tonight","$53 tonight","$47 tonight","$70 in 20 days","$50 tonight","$45 tonight","$27 tonight","$16 tonight","0.5","stim/N000.png","65","65","0.599999996","2","3","2","2","2","3","0","1","0","0","0","2","1","2","0","0","1","2","2","1","3","3","1","0","1","1","0","3","0","1","0","0","1","1","0","1","0","1","0","0","0","0","1","0","0","0","0","agree","null","","","","","","","","stim/T100.png","null","","",""
"html-keyboard-response","79","633334","0.0-23.0-1.18","zh26we6crnx1vzv","60fda0fbed68b10930a7085f","1","27","heterosexual","245","6.0","Male","White or Caucasian ","No   ","Undergraduate degree ","No, currently not in school ","n/a","n/a","n/a","4","2","3","4","1","0:30","2:0","0:0","3:0","0:0","0:30","2:0","0:0","2:0","0:0","0:0","4:0","0:0","4:0","0:0","5:0","2:0","5:0","8","8","5","1","1","4","3","3","1","1","1","3","1","1","1","3","3","1","3","3","3","1","1","2","$85 in 14 days","$40 tonight","$67 tonight","$34 tonight","$15 tonight","$32 tonight","$83 tonight","$21 tonight","$48 tonight","$40 tonight","$25 tonight","$65 tonight","$55 in 10 days","$30 tonight","$53 tonight","$47 tonight","$70 in 20 days","$50 tonight","$45 tonight","$27 tonight","$16 tonight","0.5","stim/N000.png","65","65","0.599999996","2","3","2","2","2","3","0","1","0","0","0","2","1","2","0","0","1","2","2","1","3","3","1","0","1","1","0","3","0","1","0","0","1","1","0","1","0","1","0","0","0","0","1","0","0","0","0","agree","646","","","","","","","","<div style=""font-size:60px;"">?</div>","65","19","1","0.5"
"image-keyboard-response","80","634335","0.0-23.0-0.19","zh26we6crnx1vzv","60fda0fbed68b10930a7085f","1","27","heterosexual","245","6.0","Male","White or Caucasian ","No   ","Undergraduate degree ","No, currently not in school ","n/a","n/a","n/a","4","2","3","4","1","0:30","2:0","0:0","3:0","0:0","0:30","2:0","0:0","2:0","0:0","0:0","4:0","0:0","4:0","0:0","5:0","2:0","5:0","8","8","5","1","1","4","3","3","1","1","1","3","1","1","1","3","3","1","3","3","3","1","1","2","$85 in 14 days","$40 tonight","$67 tonight","$34 tonight","$15 tonight","$32 tonight","$83 tonight","$21 tonight","$48 tonight","$40 tonight","$25 tonight","$65 tonight","$55 in 10 days","$30 tonight","$53 tonight","$47 tonight","$70 in 20 days","$50 tonight","$45 tonight","$27 tonight","$16 tonight","0.5","stim/N000.png","65","65","0.599999996","2","3","2","2","2","3","0","1","0","0","0","2","1","2","0","0","1","2","2","1","3","3","1","0","1","1","0","3","0","1","0","0","1","1","0","1","0","1","0","0","0","0","1","0","0","0","0","agree","null","","","","","","","","stim/T290.png","null","","",""
"html-keyboard-response","81","634767","0.0-23.0-1.19","zh26we6crnx1vzv","60fda0fbed68b10930a7085f","1","27","heterosexual","245","6.0","Male","White or Caucasian ","No   ","Undergraduate degree ","No, currently not in school ","n/a","n/a","n/a","4","2","3","4","1","0:30","2:0","0:0","3:0","0:0","0:30","2:0","0:0","2:0","0:0","0:0","4:0","0:0","4:0","0:0","5:0","2:0","5:0","8","8","5","1","1","4","3","3","1","1","1","3","1","1","1","3","3","1","3","3","3","1","1","2","$85 in 14 days","$40 tonight","$67 tonight","$34 tonight","$15 tonight","$32 tonight","$83 tonight","$21 tonight","$48 tonight","$40 tonight","$25 tonight","$65 tonight","$55 in 10 days","$30 tonight","$53 tonight","$47 tonight","$70 in 20 days","$50 tonight","$45 tonight","$27 tonight","$16 tonight","0.5","stim/N000.png","65","65","0.599999996","2","3","2","2","2","3","0","1","0","0","0","2","1","2","0","0","1","2","2","1","3","3","1","0","1","1","0","3","0","1","0","0","1","1","0","1","0","1","0","0","0","0","1","0","0","0","0","agree","430.0000000001164","","","","","","","","<div style=""font-size:60px;"">?</div>","65","20","1","0.5"
"image-keyboard-response","82","635768","0.0-23.0-0.20","zh26we6crnx1vzv","60fda0fbed68b10930a7085f","1","27","heterosexual","245","6.0","Male","White or Caucasian ","No   ","Undergraduate degree ","No, currently not in school ","n/a","n/a","n/a","4","2","3","4","1","0:30","2:0","0:0","3:0","0:0","0:30","2:0","0:0","2:0","0:0","0:0","4:0","0:0","4:0","0:0","5:0","2:0","5:0","8","8","5","1","1","4","3","3","1","1","1","3","1","1","1","3","3","1","3","3","3","1","1","2","$85 in 14 days","$40 tonight","$67 tonight","$34 tonight","$15 tonight","$32 tonight","$83 tonight","$21 tonight","$48 tonight","$40 tonight","$25 tonight","$65 tonight","$55 in 10 days","$30 tonight","$53 tonight","$47 tonight","$70 in 20 days","$50 tonight","$45 tonight","$27 tonight","$16 tonight","0.5","stim/N000.png","65","65","0.599999996","2","3","2","2","2","3","0","1","0","0","0","2","1","2","0","0","1","2","2","1","3","3","1","0","1","1","0","3","0","1","0","0","1","1","0","1","0","1","0","0","0","0","1","0","0","0","0","agree","null","","","","","","","","stim/T290.png","null","","",""
"html-keyboard-response","83","636111","0.0-23.0-1.20","zh26we6crnx1vzv","60fda0fbed68b10930a7085f","1","27","heterosexual","245","6.0","Male","White or Caucasian ","No   ","Undergraduate degree ","No, currently not in school ","n/a","n/a","n/a","4","2","3","4","1","0:30","2:0","0:0","3:0","0:0","0:30","2:0","0:0","2:0","0:0","0:0","4:0","0:0","4:0","0:0","5:0","2:0","5:0","8","8","5","1","1","4","3","3","1","1","1","3","1","1","1","3","3","1","3","3","3","1","1","2","$85 in 14 days","$40 tonight","$67 tonight","$34 tonight","$15 tonight","$32 tonight","$83 tonight","$21 tonight","$48 tonight","$40 tonight","$25 tonight","$65 tonight","$55 in 10 days","$30 tonight","$53 tonight","$47 tonight","$70 in 20 days","$50 tonight","$45 tonight","$27 tonight","$16 tonight","0.5","stim/N000.png","65","65","0.599999996","2","3","2","2","2","3","0","1","0","0","0","2","1","2","0","0","1","2","2","1","3","3","1","0","1","1","0","3","0","1","0","0","1","1","0","1","0","1","0","0","0","0","1","0","0","0","0","agree","342","","","","","","","","<div style=""font-size:60px;"">?</div>","65","21","1","0.5"
"image-keyboard-response","84","637112","0.0-23.0-0.21","zh26we6crnx1vzv","60fda0fbed68b10930a7085f","1","27","heterosexual","245","6.0","Male","White or Caucasian ","No   ","Undergraduate degree ","No, currently not in school ","n/a","n/a","n/a","4","2","3","4","1","0:30","2:0","0:0","3:0","0:0","0:30","2:0","0:0","2:0","0:0","0:0","4:0","0:0","4:0","0:0","5:0","2:0","5:0","8","8","5","1","1","4","3","3","1","1","1","3","1","1","1","3","3","1","3","3","3","1","1","2","$85 in 14 days","$40 tonight","$67 tonight","$34 tonight","$15 tonight","$32 tonight","$83 tonight","$21 tonight","$48 tonight","$40 tonight","$25 tonight","$65 tonight","$55 in 10 days","$30 tonight","$53 tonight","$47 tonight","$70 in 20 days","$50 tonight","$45 tonight","$27 tonight","$16 tonight","0.5","stim/N000.png","65","65","0.599999996","2","3","2","2","2","3","0","1","0","0","0","2","1","2","0","0","1","2","2","1","3","3","1","0","1","1","0","3","0","1","0","0","1","1","0","1","0","1","0","0","0","0","1","0","0","0","0","agree","null","","","","","","","","stim/T040.png","null","","",""
"html-keyboard-response","85","637454","0.0-23.0-1.21","zh26we6crnx1vzv","60fda0fbed68b10930a7085f","1","27","heterosexual","245","6.0","Male","White or Caucasian ","No   ","Undergraduate degree ","No, currently not in school ","n/a","n/a","n/a","4","2","3","4","1","0:30","2:0","0:0","3:0","0:0","0:30","2:0","0:0","2:0","0:0","0:0","4:0","0:0","4:0","0:0","5:0","2:0","5:0","8","8","5","1","1","4","3","3","1","1","1","3","1","1","1","3","3","1","3","3","3","1","1","2","$85 in 14 days","$40 tonight","$67 tonight","$34 tonight","$15 tonight","$32 tonight","$83 tonight","$21 tonight","$48 tonight","$40 tonight","$25 tonight","$65 tonight","$55 in 10 days","$30 tonight","$53 tonight","$47 tonight","$70 in 20 days","$50 tonight","$45 tonight","$27 tonight","$16 tonight","0.5","stim/N000.png","65","65","0.599999996","2","3","2","2","2","3","0","1","0","0","0","2","1","2","0","0","1","2","2","1","3","3","1","0","1","1","0","3","0","1","0","0","1","1","0","1","0","1","0","0","0","0","1","0","0","0","0","agree","341.9999999998836","","","","","","","","<div style=""font-size:60px;"">?</div>","76","22","1","0.5"
"image-keyboard-response","86","638456","0.0-23.0-0.22","zh26we6crnx1vzv","60fda0fbed68b10930a7085f","1","27","heterosexual","245","6.0","Male","White or Caucasian ","No   ","Undergraduate degree ","No, currently not in school ","n/a","n/a","n/a","4","2","3","4","1","0:30","2:0","0:0","3:0","0:0","0:30","2:0","0:0","2:0","0:0","0:0","4:0","0:0","4:0","0:0","5:0","2:0","5:0","8","8","5","1","1","4","3","3","1","1","1","3","1","1","1","3","3","1","3","3","3","1","1","2","$85 in 14 days","$40 tonight","$67 tonight","$34 tonight","$15 tonight","$32 tonight","$83 tonight","$21 tonight","$48 tonight","$40 tonight","$25 tonight","$65 tonight","$55 in 10 days","$30 tonight","$53 tonight","$47 tonight","$70 in 20 days","$50 tonight","$45 tonight","$27 tonight","$16 tonight","0.5","stim/N000.png","65","65","0.599999996","2","3","2","2","2","3","0","1","0","0","0","2","1","2","0","0","1","2","2","1","3","3","1","0","1","1","0","3","0","1","0","0","1","1","0","1","0","1","0","0","0","0","1","0","0","0","0","agree","null","","","","","","","","stim/H100.png","null","","",""
"html-keyboard-response","87","638551","0.0-23.0-1.22","zh26we6crnx1vzv","60fda0fbed68b10930a7085f","1","27","heterosexual","245","6.0","Male","White or Caucasian ","No   ","Undergraduate degree ","No, currently not in school ","n/a","n/a","n/a","4","2","3","4","1","0:30","2:0","0:0","3:0","0:0","0:30","2:0","0:0","2:0","0:0","0:0","4:0","0:0","4:0","0:0","5:0","2:0","5:0","8","8","5","1","1","4","3","3","1","1","1","3","1","1","1","3","3","1","3","3","3","1","1","2","$85 in 14 days","$40 tonight","$67 tonight","$34 tonight","$15 tonight","$32 tonight","$83 tonight","$21 tonight","$48 tonight","$40 tonight","$25 tonight","$65 tonight","$55 in 10 days","$30 tonight","$53 tonight","$47 tonight","$70 in 20 days","$50 tonight","$45 tonight","$27 tonight","$16 tonight","0.5","stim/N000.png","65","65","0.599999996","2","3","2","2","2","3","0","1","0","0","0","2","1","2","0","0","1","2","2","1","3","3","1","0","1","1","0","3","0","1","0","0","1","1","0","1","0","1","0","0","0","0","1","0","0","0","0","agree","94","","","","","","","","<div style=""font-size:60px;"">?</div>","76","23","1","0.5"
