"trial_type","trial_index","time_elapsed","internal_node_id","subject","condition","prolID","age","weight","height","gender","ethnicity","mental_check","educ_l","educ_c","mental","mentdrug","mentpos","soc_1","soc_2","soc_3","soc_4","soc_5","TV01","DEV01","LAP01","PHO01","TAB01","TV02","DEV02","LAP02","PHO02","TAB02","TV03","DEV03","LAP03","PHO03","TAB03","WEDSEC","WNISEC","WKNSEC","sesparent","sesstudent","sesladder","sescurrency","educ_hs","educ_ce","nfc_01","nfc_02","nfc_03","nfc_04","nfc_05","nfc_06","nfc_07","nfc_08","nfc_09","nfc_10","nfc_11","nfc_12","nfc_13","nfc_14","nfc_15","nfc_16","nfc_17","nfc_18","kirby01","kirby02","kirby03","kirby04","kirby05","kirby06","kirby07","kirby08","kirby09","kirby10","kirby11","kirby12","kirby13","kirby14","kirby15","kirby16","kirby17","kirby18","kirby19","kirby20","kirby21","s1self","chosenbody","s1selfjudge","s2selfjudge","s2self","EDEQ_1","EDEQ_2","EDEQ_3","EDEQ_4","EDEQ_5","EDEQ_6","EDEQ_7","EDEQ_8","EDEQ_9","EDEQ_10","EDEQ_11","catch1","EDEQ_12","BSQR_1","BSQR_2","BSQR_3","BSQR_4","BSQR_5","BSQR_6","BSQR_7","BSQR_8","BSQR_9","BSQR_10","BSQR_11","catch2","BSQR_12","BSQR_13","BSQR_14","BSI_1","BSI_2","BSI_3","BSI_4","BSI_5","BSI_6","BSI_7","BSI_8","catch3","BSI_9","BSI_10","BSI_11","BSI_12","BSI_13","BSI_14","BSI_15","BSI_16","BSI_17","BSI_18","debrief","rt","url","success","view_history","responses","question_order","final_value","start_value","stimulus","key_press","trial","block","freq"
"pavlovia","0","8","0.0-0.0","oncfgqwzj2g7shh","1","5f3430f7b2ea6115cb8564bb","23","195","6.0","Male","Asian ","No   ","Undergraduate degree ","Yes, Undergraduate studies ","N/A","N/A","N/A","3","3","3","4","4","00:00","00:00","08:00","02:00","00:00","00:00","00:00","02:00","03:00","00:00","00:00","00:00","08:00","02:00","00:00","03:30","02:00","03:00","5","4","3","0","2","13","1","1","3","3","3","1","3","3","3","1","2","1","1","1","1","3","2","3","$30 tonight","$40 tonight","$67 tonight","$34 tonight","$15 tonight","$32 tonight","$83 tonight","$21 tonight","$48 tonight","$40 tonight","$25 tonight","$65 tonight","$24 tonight","$30 tonight","$53 tonight","$47 tonight","$40 tonight","$50 tonight","$45 tonight","$27 tonight","$16 tonight","0.633333328","stim/H080.png","76","76","0.633333328","3","1","2","2","1","3","0","1","3","2","3","2","3","4","1","2","5","5","5","5","5","5","5","3","1","4","4","4","0","2","2","2","2","2","1","2","0","0","3","2","0","1","2","2","2","0","0","agree","","","","","","","","","","","","",""
"external-html","1","16743","0.0-1.0","oncfgqwzj2g7shh","1","5f3430f7b2ea6115cb8564bb","23","195","6.0","Male","Asian ","No   ","Undergraduate degree ","Yes, Undergraduate studies ","N/A","N/A","N/A","3","3","3","4","4","00:00","00:00","08:00","02:00","00:00","00:00","00:00","02:00","03:00","00:00","00:00","00:00","08:00","02:00","00:00","03:30","02:00","03:00","5","4","3","0","2","13","1","1","3","3","3","1","3","3","3","1","2","1","1","1","1","3","2","3","$30 tonight","$40 tonight","$67 tonight","$34 tonight","$15 tonight","$32 tonight","$83 tonight","$21 tonight","$48 tonight","$40 tonight","$25 tonight","$65 tonight","$24 tonight","$30 tonight","$53 tonight","$47 tonight","$40 tonight","$50 tonight","$45 tonight","$27 tonight","$16 tonight","0.633333328","stim/H080.png","76","76","0.633333328","3","1","2","2","1","3","0","1","3","2","3","2","3","4","1","2","5","5","5","5","5","5","5","3","1","4","4","4","0","2","2","2","2","2","1","2","0","0","3","2","0","1","2","2","2","0","0","agree","16580","sub/html/consent.html","","","","","","","","","","",""
"fullscreen","2","20620","0.0-2.0","oncfgqwzj2g7shh","1","5f3430f7b2ea6115cb8564bb","23","195","6.0","Male","Asian ","No   ","Undergraduate degree ","Yes, Undergraduate studies ","N/A","N/A","N/A","3","3","3","4","4","00:00","00:00","08:00","02:00","00:00","00:00","00:00","02:00","03:00","00:00","00:00","00:00","08:00","02:00","00:00","03:30","02:00","03:00","5","4","3","0","2","13","1","1","3","3","3","1","3","3","3","1","2","1","1","1","1","3","2","3","$30 tonight","$40 tonight","$67 tonight","$34 tonight","$15 tonight","$32 tonight","$83 tonight","$21 tonight","$48 tonight","$40 tonight","$25 tonight","$65 tonight","$24 tonight","$30 tonight","$53 tonight","$47 tonight","$40 tonight","$50 tonight","$45 tonight","$27 tonight","$16 tonight","0.633333328","stim/H080.png","76","76","0.633333328","3","1","2","2","1","3","0","1","3","2","3","2","3","4","1","2","5","5","5","5","5","5","5","3","1","4","4","4","0","2","2","2","2","2","1","2","0","0","3","2","0","1","2","2","2","0","0","agree","","","true","","","","","","","","","",""
"instructions","3","25097","0.0-3.0","oncfgqwzj2g7shh","1","5f3430f7b2ea6115cb8564bb","23","195","6.0","Male","Asian ","No   ","Undergraduate degree ","Yes, Undergraduate studies ","N/A","N/A","N/A","3","3","3","4","4","00:00","00:00","08:00","02:00","00:00","00:00","00:00","02:00","03:00","00:00","00:00","00:00","08:00","02:00","00:00","03:30","02:00","03:00","5","4","3","0","2","13","1","1","3","3","3","1","3","3","3","1","2","1","1","1","1","3","2","3","$30 tonight","$40 tonight","$67 tonight","$34 tonight","$15 tonight","$32 tonight","$83 tonight","$21 tonight","$48 tonight","$40 tonight","$25 tonight","$65 tonight","$24 tonight","$30 tonight","$53 tonight","$47 tonight","$40 tonight","$50 tonight","$45 tonight","$27 tonight","$16 tonight","0.633333328","stim/H080.png","76","76","0.633333328","3","1","2","2","1","3","0","1","3","2","3","2","3","4","1","2","5","5","5","5","5","5","5","3","1","4","4","4","0","2","2","2","2","2","1","2","0","0","3","2","0","1","2","2","2","0","0","agree","4476","","","[{""page_index"":0,""viewing_time"":1977},{""page_index"":1,""viewing_time"":2499}]","","","","","","","","",""
"survey-text","4","51848","0.0-4.0","oncfgqwzj2g7shh","1","5f3430f7b2ea6115cb8564bb","23","195","6.0","Male","Asian ","No   ","Undergraduate degree ","Yes, Undergraduate studies ","N/A","N/A","N/A","3","3","3","4","4","00:00","00:00","08:00","02:00","00:00","00:00","00:00","02:00","03:00","00:00","00:00","00:00","08:00","02:00","00:00","03:30","02:00","03:00","5","4","3","0","2","13","1","1","3","3","3","1","3","3","3","1","2","1","1","1","1","3","2","3","$30 tonight","$40 tonight","$67 tonight","$34 tonight","$15 tonight","$32 tonight","$83 tonight","$21 tonight","$48 tonight","$40 tonight","$25 tonight","$65 tonight","$24 tonight","$30 tonight","$53 tonight","$47 tonight","$40 tonight","$50 tonight","$45 tonight","$27 tonight","$16 tonight","0.633333328","stim/H080.png","76","76","0.633333328","3","1","2","2","1","3","0","1","3","2","3","2","3","4","1","2","5","5","5","5","5","5","5","3","1","4","4","4","0","2","2","2","2","2","1","2","0","0","3","2","0","1","2","2","2","0","0","agree","26746","","","","{""prolID"":""5f3430f7b2ea6115cb8564bb"",""age"":""23"",""weight"":""195"",""height"":""6.0""}","","","","","","","",""
"survey-multi-choice","5","67867","0.0-5.0","oncfgqwzj2g7shh","1","5f3430f7b2ea6115cb8564bb","23","195","6.0","Male","Asian ","No   ","Undergraduate degree ","Yes, Undergraduate studies ","N/A","N/A","N/A","3","3","3","4","4","00:00","00:00","08:00","02:00","00:00","00:00","00:00","02:00","03:00","00:00","00:00","00:00","08:00","02:00","00:00","03:30","02:00","03:00","5","4","3","0","2","13","1","1","3","3","3","1","3","3","3","1","2","1","1","1","1","3","2","3","$30 tonight","$40 tonight","$67 tonight","$34 tonight","$15 tonight","$32 tonight","$83 tonight","$21 tonight","$48 tonight","$40 tonight","$25 tonight","$65 tonight","$24 tonight","$30 tonight","$53 tonight","$47 tonight","$40 tonight","$50 tonight","$45 tonight","$27 tonight","$16 tonight","0.633333328","stim/H080.png","76","76","0.633333328","3","1","2","2","1","3","0","1","3","2","3","2","3","4","1","2","5","5","5","5","5","5","5","3","1","4","4","4","0","2","2","2","2","2","1","2","0","0","3","2","0","1","2","2","2","0","0","agree","16016","","","","{""gender"":""Male"",""ethnicity"":""Asian "",""mental_check"":""No   "",""educ_l"":""Undergraduate degree "",""educ_c"":""Yes, Undergraduate studies ""}","[0,1,2,3,4]","","","","","","",""
"survey-text","6","82058","0.0-6.0","oncfgqwzj2g7shh","1","5f3430f7b2ea6115cb8564bb","23","195","6.0","Male","Asian ","No   ","Undergraduate degree ","Yes, Undergraduate studies ","N/A","N/A","N/A","3","3","3","4","4","00:00","00:00","08:00","02:00","00:00","00:00","00:00","02:00","03:00","00:00","00:00","00:00","08:00","02:00","00:00","03:30","02:00","03:00","5","4","3","0","2","13","1","1","3","3","3","1","3","3","3","1","2","1","1","1","1","3","2","3","$30 tonight","$40 tonight","$67 tonight","$34 tonight","$15 tonight","$32 tonight","$83 tonight","$21 tonight","$48 tonight","$40 tonight","$25 tonight","$65 tonight","$24 tonight","$30 tonight","$53 tonight","$47 tonight","$40 tonight","$50 tonight","$45 tonight","$27 tonight","$16 tonight","0.633333328","stim/H080.png","76","76","0.633333328","3","1","2","2","1","3","0","1","3","2","3","2","3","4","1","2","5","5","5","5","5","5","5","3","1","4","4","4","0","2","2","2","2","2","1","2","0","0","3","2","0","1","2","2","2","0","0","agree","14188","","","","{""mental"":""N/A"",""mentdrug"":""N/A"",""mentpos"":""N/A""}","","","","","","","",""
"survey-likert","7","101089","0.0-7.0","oncfgqwzj2g7shh","1","5f3430f7b2ea6115cb8564bb","23","195","6.0","Male","Asian ","No   ","Undergraduate degree ","Yes, Undergraduate studies ","N/A","N/A","N/A","3","3","3","4","4","00:00","00:00","08:00","02:00","00:00","00:00","00:00","02:00","03:00","00:00","00:00","00:00","08:00","02:00","00:00","03:30","02:00","03:00","5","4","3","0","2","13","1","1","3","3","3","1","3","3","3","1","2","1","1","1","1","3","2","3","$30 tonight","$40 tonight","$67 tonight","$34 tonight","$15 tonight","$32 tonight","$83 tonight","$21 tonight","$48 tonight","$40 tonight","$25 tonight","$65 tonight","$24 tonight","$30 tonight","$53 tonight","$47 tonight","$40 tonight","$50 tonight","$45 tonight","$27 tonight","$16 tonight","0.633333328","stim/H080.png","76","76","0.633333328","3","1","2","2","1","3","0","1","3","2","3","2","3","4","1","2","5","5","5","5","5","5","5","3","1","4","4","4","0","2","2","2","2","2","1","2","0","0","3","2","0","1","2","2","2","0","0","agree","19027","","","","{""soc_1"":3,""soc_2"":3,""soc_3"":3,""soc_4"":4,""soc_5"":4}","[0,1,2,3,4]","","","","","","",""
"survey-text","8","166345","0.0-8.0","oncfgqwzj2g7shh","1","5f3430f7b2ea6115cb8564bb","23","195","6.0","Male","Asian ","No   ","Undergraduate degree ","Yes, Undergraduate studies ","N/A","N/A","N/A","3","3","3","4","4","00:00","00:00","08:00","02:00","00:00","00:00","00:00","02:00","03:00","00:00","00:00","00:00","08:00","02:00","00:00","03:30","02:00","03:00","5","4","3","0","2","13","1","1","3","3","3","1","3","3","3","1","2","1","1","1","1","3","2","3","$30 tonight","$40 tonight","$67 tonight","$34 tonight","$15 tonight","$32 tonight","$83 tonight","$21 tonight","$48 tonight","$40 tonight","$25 tonight","$65 tonight","$24 tonight","$30 tonight","$53 tonight","$47 tonight","$40 tonight","$50 tonight","$45 tonight","$27 tonight","$16 tonight","0.633333328","stim/H080.png","76","76","0.633333328","3","1","2","2","1","3","0","1","3","2","3","2","3","4","1","2","5","5","5","5","5","5","5","3","1","4","4","4","0","2","2","2","2","2","1","2","0","0","3","2","0","1","2","2","2","0","0","agree","65252","","","","{""tv_01"":""00:00"",""dev_01"":""00:00"",""lap_01"":""08:00"",""pho_01"":""02:00"",""tab_01"":""00:00""}","","","","","","","",""
"survey-text","9","203341","0.0-9.0","oncfgqwzj2g7shh","1","5f3430f7b2ea6115cb8564bb","23","195","6.0","Male","Asian ","No   ","Undergraduate degree ","Yes, Undergraduate studies ","N/A","N/A","N/A","3","3","3","4","4","00:00","00:00","08:00","02:00","00:00","00:00","00:00","02:00","03:00","00:00","00:00","00:00","08:00","02:00","00:00","03:30","02:00","03:00","5","4","3","0","2","13","1","1","3","3","3","1","3","3","3","1","2","1","1","1","1","3","2","3","$30 tonight","$40 tonight","$67 tonight","$34 tonight","$15 tonight","$32 tonight","$83 tonight","$21 tonight","$48 tonight","$40 tonight","$25 tonight","$65 tonight","$24 tonight","$30 tonight","$53 tonight","$47 tonight","$40 tonight","$50 tonight","$45 tonight","$27 tonight","$16 tonight","0.633333328","stim/H080.png","76","76","0.633333328","3","1","2","2","1","3","0","1","3","2","3","2","3","4","1","2","5","5","5","5","5","5","5","3","1","4","4","4","0","2","2","2","2","2","1","2","0","0","3","2","0","1","2","2","2","0","0","agree","36991","","","","{""tv_02"":""00:00"",""dev_02"":""00:00"",""lap_02"":""02:00"",""pho_02"":""03:00"",""tab_02"":""00:00""}","","","","","","","",""
"survey-text","10","222630","0.0-10.0","oncfgqwzj2g7shh","1","5f3430f7b2ea6115cb8564bb","23","195","6.0","Male","Asian ","No   ","Undergraduate degree ","Yes, Undergraduate studies ","N/A","N/A","N/A","3","3","3","4","4","00:00","00:00","08:00","02:00","00:00","00:00","00:00","02:00","03:00","00:00","00:00","00:00","08:00","02:00","00:00","03:30","02:00","03:00","5","4","3","0","2","13","1","1","3","3","3","1","3","3","3","1","2","1","1","1","1","3","2","3","$30 tonight","$40 tonight","$67 tonight","$34 tonight","$15 tonight","$32 tonight","$83 tonight","$21 tonight","$48 tonight","$40 tonight","$25 tonight","$65 tonight","$24 tonight","$30 tonight","$53 tonight","$47 tonight","$40 tonight","$50 tonight","$45 tonight","$27 tonight","$16 tonight","0.633333328","stim/H080.png","76","76","0.633333328","3","1","2","2","1","3","0","1","3","2","3","2","3","4","1","2","5","5","5","5","5","5","5","3","1","4","4","4","0","2","2","2","2","2","1","2","0","0","3","2","0","1","2","2","2","0","0","agree","19288","","","","{""tv_03"":""00:00"",""dev_03"":""00:00"",""lap_03"":""08:00"",""pho_03"":""02:00"",""tab_03"":""00:00""}","","","","","","","",""
"survey-text","11","260350","0.0-11.0","oncfgqwzj2g7shh","1","5f3430f7b2ea6115cb8564bb","23","195","6.0","Male","Asian ","No   ","Undergraduate degree ","Yes, Undergraduate studies ","N/A","N/A","N/A","3","3","3","4","4","00:00","00:00","08:00","02:00","00:00","00:00","00:00","02:00","03:00","00:00","00:00","00:00","08:00","02:00","00:00","03:30","02:00","03:00","5","4","3","0","2","13","1","1","3","3","3","1","3","3","3","1","2","1","1","1","1","3","2","3","$30 tonight","$40 tonight","$67 tonight","$34 tonight","$15 tonight","$32 tonight","$83 tonight","$21 tonight","$48 tonight","$40 tonight","$25 tonight","$65 tonight","$24 tonight","$30 tonight","$53 tonight","$47 tonight","$40 tonight","$50 tonight","$45 tonight","$27 tonight","$16 tonight","0.633333328","stim/H080.png","76","76","0.633333328","3","1","2","2","1","3","0","1","3","2","3","2","3","4","1","2","5","5","5","5","5","5","5","3","1","4","4","4","0","2","2","2","2","2","1","2","0","0","3","2","0","1","2","2","2","0","0","agree","37713","","","","{""Wedsec"":""03:30"",""Wnisec"":""02:00"",""Wknsec"":""03:00""}","","","","","","","",""
"survey-likert","12","283632","0.0-12.0","oncfgqwzj2g7shh","1","5f3430f7b2ea6115cb8564bb","23","195","6.0","Male","Asian ","No   ","Undergraduate degree ","Yes, Undergraduate studies ","N/A","N/A","N/A","3","3","3","4","4","00:00","00:00","08:00","02:00","00:00","00:00","00:00","02:00","03:00","00:00","00:00","00:00","08:00","02:00","00:00","03:30","02:00","03:00","5","4","3","0","2","13","1","1","3","3","3","1","3","3","3","1","2","1","1","1","1","3","2","3","$30 tonight","$40 tonight","$67 tonight","$34 tonight","$15 tonight","$32 tonight","$83 tonight","$21 tonight","$48 tonight","$40 tonight","$25 tonight","$65 tonight","$24 tonight","$30 tonight","$53 tonight","$47 tonight","$40 tonight","$50 tonight","$45 tonight","$27 tonight","$16 tonight","0.633333328","stim/H080.png","76","76","0.633333328","3","1","2","2","1","3","0","1","3","2","3","2","3","4","1","2","5","5","5","5","5","5","5","3","1","4","4","4","0","2","2","2","2","2","1","2","0","0","3","2","0","1","2","2","2","0","0","agree","23280","","","","{""sesparent"":5,""sesstudent"":4,""sesladder"":3,""sescurrency"":0}","[0,1,2,3]","","","","","","",""
"survey-likert","13","294621","0.0-13.0","oncfgqwzj2g7shh","1","5f3430f7b2ea6115cb8564bb","23","195","6.0","Male","Asian ","No   ","Undergraduate degree ","Yes, Undergraduate studies ","N/A","N/A","N/A","3","3","3","4","4","00:00","00:00","08:00","02:00","00:00","00:00","00:00","02:00","03:00","00:00","00:00","00:00","08:00","02:00","00:00","03:30","02:00","03:00","5","4","3","0","2","13","1","1","3","3","3","1","3","3","3","1","2","1","1","1","1","3","2","3","$30 tonight","$40 tonight","$67 tonight","$34 tonight","$15 tonight","$32 tonight","$83 tonight","$21 tonight","$48 tonight","$40 tonight","$25 tonight","$65 tonight","$24 tonight","$30 tonight","$53 tonight","$47 tonight","$40 tonight","$50 tonight","$45 tonight","$27 tonight","$16 tonight","0.633333328","stim/H080.png","76","76","0.633333328","3","1","2","2","1","3","0","1","3","2","3","2","3","4","1","2","5","5","5","5","5","5","5","3","1","4","4","4","0","2","2","2","2","2","1","2","0","0","3","2","0","1","2","2","2","0","0","agree","10986","","","","{""educ_hs"":2,""educ_ce"":13}","[0,1]","","","","","","",""
"survey-likert","14","362093","0.0-14.0","oncfgqwzj2g7shh","1","5f3430f7b2ea6115cb8564bb","23","195","6.0","Male","Asian ","No   ","Undergraduate degree ","Yes, Undergraduate studies ","N/A","N/A","N/A","3","3","3","4","4","00:00","00:00","08:00","02:00","00:00","00:00","00:00","02:00","03:00","00:00","00:00","00:00","08:00","02:00","00:00","03:30","02:00","03:00","5","4","3","0","2","13","1","1","3","3","3","1","3","3","3","1","2","1","1","1","1","3","2","3","$30 tonight","$40 tonight","$67 tonight","$34 tonight","$15 tonight","$32 tonight","$83 tonight","$21 tonight","$48 tonight","$40 tonight","$25 tonight","$65 tonight","$24 tonight","$30 tonight","$53 tonight","$47 tonight","$40 tonight","$50 tonight","$45 tonight","$27 tonight","$16 tonight","0.633333328","stim/H080.png","76","76","0.633333328","3","1","2","2","1","3","0","1","3","2","3","2","3","4","1","2","5","5","5","5","5","5","5","3","1","4","4","4","0","2","2","2","2","2","1","2","0","0","3","2","0","1","2","2","2","0","0","agree","67468","","","","{""nfc_01"":1,""nfc_02"":1,""nfc_03"":3,""nfc_04"":3,""nfc_05"":3,""nfc_06"":1,""nfc_07"":3,""nfc_08"":3,""nfc_09"":3,""nfc_10"":1,""nfc_11"":2,""nfc_12"":1,""nfc_13"":1,""nfc_14"":1,""nfc_15"":1,""nfc_16"":3,""nfc_17"":2,""nfc_18"":3}","[0,1,2,3,4,5,6,7,8,9,10,11,12,13,14,15,16,17]","","","","","","",""
"survey-multi-choice","15","406369","0.0-15.0","oncfgqwzj2g7shh","1","5f3430f7b2ea6115cb8564bb","23","195","6.0","Male","Asian ","No   ","Undergraduate degree ","Yes, Undergraduate studies ","N/A","N/A","N/A","3","3","3","4","4","00:00","00:00","08:00","02:00","00:00","00:00","00:00","02:00","03:00","00:00","00:00","00:00","08:00","02:00","00:00","03:30","02:00","03:00","5","4","3","0","2","13","1","1","3","3","3","1","3","3","3","1","2","1","1","1","1","3","2","3","$30 tonight","$40 tonight","$67 tonight","$34 tonight","$15 tonight","$32 tonight","$83 tonight","$21 tonight","$48 tonight","$40 tonight","$25 tonight","$65 tonight","$24 tonight","$30 tonight","$53 tonight","$47 tonight","$40 tonight","$50 tonight","$45 tonight","$27 tonight","$16 tonight","0.633333328","stim/H080.png","76","76","0.633333328","3","1","2","2","1","3","0","1","3","2","3","2","3","4","1","2","5","5","5","5","5","5","5","3","1","4","4","4","0","2","2","2","2","2","1","2","0","0","3","2","0","1","2","2","2","0","0","agree","44271","","","","{""kirby01"":""$30 tonight"",""kirby02"":""$40 tonight"",""kirby03"":""$67 tonight"",""kirby04"":""$34 tonight"",""kirby05"":""$15 tonight"",""kirby06"":""$32 tonight"",""kirby07"":""$83 tonight"",""kirby08"":""$21 tonight"",""kirby09"":""$48 tonight"",""kirby10"":""$40 tonight"",""kirby11"":""$25 tonight"",""kirby12"":""$65 tonight"",""kirby13"":""$24 tonight"",""kirby14"":""$30 tonight"",""kirby15"":""$53 tonight"",""kirby16"":""$47 tonight"",""kirby17"":""$40 tonight"",""kirby18"":""$50 tonight"",""kirby19"":""$45 tonight"",""kirby20"":""$27 tonight"",""kirby21"":""$16 tonight""}","[0,1,2,3,4,5,6,7,8,9,10,11,12,13,14,15,16,17,18,19,20]","","","","","","",""
"reconstruction","16","421047","0.0-16.0","oncfgqwzj2g7shh","1","5f3430f7b2ea6115cb8564bb","23","195","6.0","Male","Asian ","No   ","Undergraduate degree ","Yes, Undergraduate studies ","N/A","N/A","N/A","3","3","3","4","4","00:00","00:00","08:00","02:00","00:00","00:00","00:00","02:00","03:00","00:00","00:00","00:00","08:00","02:00","00:00","03:30","02:00","03:00","5","4","3","0","2","13","1","1","3","3","3","1","3","3","3","1","2","1","1","1","1","3","2","3","$30 tonight","$40 tonight","$67 tonight","$34 tonight","$15 tonight","$32 tonight","$83 tonight","$21 tonight","$48 tonight","$40 tonight","$25 tonight","$65 tonight","$24 tonight","$30 tonight","$53 tonight","$47 tonight","$40 tonight","$50 tonight","$45 tonight","$27 tonight","$16 tonight","0.633333328","stim/H080.png","76","76","0.633333328","3","1","2","2","1","3","0","1","3","2","3","2","3","4","1","2","5","5","5","5","5","5","5","3","1","4","4","4","0","2","2","2","2","2","1","2","0","0","3","2","0","1","2","2","2","0","0","agree","14675","","","","","","0.633333328","0.5","","","","",""
"image-keyboard-response","17","425851","0.0-17.0","oncfgqwzj2g7shh","1","5f3430f7b2ea6115cb8564bb","23","195","6.0","Male","Asian ","No   ","Undergraduate degree ","Yes, Undergraduate studies ","N/A","N/A","N/A","3","3","3","4","4","00:00","00:00","08:00","02:00","00:00","00:00","00:00","02:00","03:00","00:00","00:00","00:00","08:00","02:00","00:00","03:30","02:00","03:00","5","4","3","0","2","13","1","1","3","3","3","1","3","3","3","1","2","1","1","1","1","3","2","3","$30 tonight","$40 tonight","$67 tonight","$34 tonight","$15 tonight","$32 tonight","$83 tonight","$21 tonight","$48 tonight","$40 tonight","$25 tonight","$65 tonight","$24 tonight","$30 tonight","$53 tonight","$47 tonight","$40 tonight","$50 tonight","$45 tonight","$27 tonight","$16 tonight","0.633333328","stim/H080.png","76","76","0.633333328","3","1","2","2","1","3","0","1","3","2","3","2","3","4","1","2","5","5","5","5","5","5","5","3","1","4","4","4","0","2","2","2","2","2","1","2","0","0","3","2","0","1","2","2","2","0","0","agree","4801","","","","","","","","stim/H080.png","76","","",""
"instructions","18","443730","0.0-18.0","oncfgqwzj2g7shh","1","5f3430f7b2ea6115cb8564bb","23","195","6.0","Male","Asian ","No   ","Undergraduate degree ","Yes, Undergraduate studies ","N/A","N/A","N/A","3","3","3","4","4","00:00","00:00","08:00","02:00","00:00","00:00","00:00","02:00","03:00","00:00","00:00","00:00","08:00","02:00","00:00","03:30","02:00","03:00","5","4","3","0","2","13","1","1","3","3","3","1","3","3","3","1","2","1","1","1","1","3","2","3","$30 tonight","$40 tonight","$67 tonight","$34 tonight","$15 tonight","$32 tonight","$83 tonight","$21 tonight","$48 tonight","$40 tonight","$25 tonight","$65 tonight","$24 tonight","$30 tonight","$53 tonight","$47 tonight","$40 tonight","$50 tonight","$45 tonight","$27 tonight","$16 tonight","0.633333328","stim/H080.png","76","76","0.633333328","3","1","2","2","1","3","0","1","3","2","3","2","3","4","1","2","5","5","5","5","5","5","5","3","1","4","4","4","0","2","2","2","2","2","1","2","0","0","3","2","0","1","2","2","2","0","0","agree","17878","","","[{""page_index"":0,""viewing_time"":1476},{""page_index"":1,""viewing_time"":1922},{""page_index"":2,""viewing_time"":2947},{""page_index"":3,""viewing_time"":1233},{""page_index"":4,""viewing_time"":2348},{""page_index"":5,""viewing_time"":6091},{""page_index"":6,""viewing_time"":1861}]","","","","","","","","",""
"image-keyboard-response","19","444234","0.0-19.0-0.0","oncfgqwzj2g7shh","1","5f3430f7b2ea6115cb8564bb","23","195","6.0","Male","Asian ","No   ","Undergraduate degree ","Yes, Undergraduate studies ","N/A","N/A","N/A","3","3","3","4","4","00:00","00:00","08:00","02:00","00:00","00:00","00:00","02:00","03:00","00:00","00:00","00:00","08:00","02:00","00:00","03:30","02:00","03:00","5","4","3","0","2","13","1","1","3","3","3","1","3","3","3","1","2","1","1","1","1","3","2","3","$30 tonight","$40 tonight","$67 tonight","$34 tonight","$15 tonight","$32 tonight","$83 tonight","$21 tonight","$48 tonight","$40 tonight","$25 tonight","$65 tonight","$24 tonight","$30 tonight","$53 tonight","$47 tonight","$40 tonight","$50 tonight","$45 tonight","$27 tonight","$16 tonight","0.633333328","stim/H080.png","76","76","0.633333328","3","1","2","2","1","3","0","1","3","2","3","2","3","4","1","2","5","5","5","5","5","5","5","3","1","4","4","4","0","2","2","2","2","2","1","2","0","0","3","2","0","1","2","2","2","0","0","agree","null","","","","","","","","stim/H210.png","null","","",""
"html-keyboard-response","20","445171","0.0-19.0-1.0","oncfgqwzj2g7shh","1","5f3430f7b2ea6115cb8564bb","23","195","6.0","Male","Asian ","No   ","Undergraduate degree ","Yes, Undergraduate studies ","N/A","N/A","N/A","3","3","3","4","4","00:00","00:00","08:00","02:00","00:00","00:00","00:00","02:00","03:00","00:00","00:00","00:00","08:00","02:00","00:00","03:30","02:00","03:00","5","4","3","0","2","13","1","1","3","3","3","1","3","3","3","1","2","1","1","1","1","3","2","3","$30 tonight","$40 tonight","$67 tonight","$34 tonight","$15 tonight","$32 tonight","$83 tonight","$21 tonight","$48 tonight","$40 tonight","$25 tonight","$65 tonight","$24 tonight","$30 tonight","$53 tonight","$47 tonight","$40 tonight","$50 tonight","$45 tonight","$27 tonight","$16 tonight","0.633333328","stim/H080.png","76","76","0.633333328","3","1","2","2","1","3","0","1","3","2","3","2","3","4","1","2","5","5","5","5","5","5","5","3","1","4","4","4","0","2","2","2","2","2","1","2","0","0","3","2","0","1","2","2","2","0","0","agree","935","","","","","","","","<div style=""font-size:60px;"">?</div>","76","1","Practice","0.5"
"image-keyboard-response","21","446179","0.0-19.0-0.1","oncfgqwzj2g7shh","1","5f3430f7b2ea6115cb8564bb","23","195","6.0","Male","Asian ","No   ","Undergraduate degree ","Yes, Undergraduate studies ","N/A","N/A","N/A","3","3","3","4","4","00:00","00:00","08:00","02:00","00:00","00:00","00:00","02:00","03:00","00:00","00:00","00:00","08:00","02:00","00:00","03:30","02:00","03:00","5","4","3","0","2","13","1","1","3","3","3","1","3","3","3","1","2","1","1","1","1","3","2","3","$30 tonight","$40 tonight","$67 tonight","$34 tonight","$15 tonight","$32 tonight","$83 tonight","$21 tonight","$48 tonight","$40 tonight","$25 tonight","$65 tonight","$24 tonight","$30 tonight","$53 tonight","$47 tonight","$40 tonight","$50 tonight","$45 tonight","$27 tonight","$16 tonight","0.633333328","stim/H080.png","76","76","0.633333328","3","1","2","2","1","3","0","1","3","2","3","2","3","4","1","2","5","5","5","5","5","5","5","3","1","4","4","4","0","2","2","2","2","2","1","2","0","0","3","2","0","1","2","2","2","0","0","agree","null","","","","","","","","stim/T240.png","null","","",""
"html-keyboard-response","22","446581","0.0-19.0-1.1","oncfgqwzj2g7shh","1","5f3430f7b2ea6115cb8564bb","23","195","6.0","Male","Asian ","No   ","Undergraduate degree ","Yes, Undergraduate studies ","N/A","N/A","N/A","3","3","3","4","4","00:00","00:00","08:00","02:00","00:00","00:00","00:00","02:00","03:00","00:00","00:00","00:00","08:00","02:00","00:00","03:30","02:00","03:00","5","4","3","0","2","13","1","1","3","3","3","1","3","3","3","1","2","1","1","1","1","3","2","3","$30 tonight","$40 tonight","$67 tonight","$34 tonight","$15 tonight","$32 tonight","$83 tonight","$21 tonight","$48 tonight","$40 tonight","$25 tonight","$65 tonight","$24 tonight","$30 tonight","$53 tonight","$47 tonight","$40 tonight","$50 tonight","$45 tonight","$27 tonight","$16 tonight","0.633333328","stim/H080.png","76","76","0.633333328","3","1","2","2","1","3","0","1","3","2","3","2","3","4","1","2","5","5","5","5","5","5","5","3","1","4","4","4","0","2","2","2","2","2","1","2","0","0","3","2","0","1","2","2","2","0","0","agree","399","","","","","","","","<div style=""font-size:60px;"">?</div>","65","2","Practice","0.5"
"image-keyboard-response","23","447586","0.0-19.0-0.2","oncfgqwzj2g7shh","1","5f3430f7b2ea6115cb8564bb","23","195","6.0","Male","Asian ","No   ","Undergraduate degree ","Yes, Undergraduate studies ","N/A","N/A","N/A","3","3","3","4","4","00:00","00:00","08:00","02:00","00:00","00:00","00:00","02:00","03:00","00:00","00:00","00:00","08:00","02:00","00:00","03:30","02:00","03:00","5","4","3","0","2","13","1","1","3","3","3","1","3","3","3","1","2","1","1","1","1","3","2","3","$30 tonight","$40 tonight","$67 tonight","$34 tonight","$15 tonight","$32 tonight","$83 tonight","$21 tonight","$48 tonight","$40 tonight","$25 tonight","$65 tonight","$24 tonight","$30 tonight","$53 tonight","$47 tonight","$40 tonight","$50 tonight","$45 tonight","$27 tonight","$16 tonight","0.633333328","stim/H080.png","76","76","0.633333328","3","1","2","2","1","3","0","1","3","2","3","2","3","4","1","2","5","5","5","5","5","5","5","3","1","4","4","4","0","2","2","2","2","2","1","2","0","0","3","2","0","1","2","2","2","0","0","agree","null","","","","","","","","stim/H060.png","null","","",""
"html-keyboard-response","24","447727","0.0-19.0-1.2","oncfgqwzj2g7shh","1","5f3430f7b2ea6115cb8564bb","23","195","6.0","Male","Asian ","No   ","Undergraduate degree ","Yes, Undergraduate studies ","N/A","N/A","N/A","3","3","3","4","4","00:00","00:00","08:00","02:00","00:00","00:00","00:00","02:00","03:00","00:00","00:00","00:00","08:00","02:00","00:00","03:30","02:00","03:00","5","4","3","0","2","13","1","1","3","3","3","1","3","3","3","1","2","1","1","1","1","3","2","3","$30 tonight","$40 tonight","$67 tonight","$34 tonight","$15 tonight","$32 tonight","$83 tonight","$21 tonight","$48 tonight","$40 tonight","$25 tonight","$65 tonight","$24 tonight","$30 tonight","$53 tonight","$47 tonight","$40 tonight","$50 tonight","$45 tonight","$27 tonight","$16 tonight","0.633333328","stim/H080.png","76","76","0.633333328","3","1","2","2","1","3","0","1","3","2","3","2","3","4","1","2","5","5","5","5","5","5","5","3","1","4","4","4","0","2","2","2","2","2","1","2","0","0","3","2","0","1","2","2","2","0","0","agree","139","","","","","","","","<div style=""font-size:60px;"">?</div>","76","3","Practice","0.5"
"image-keyboard-response","25","448734","0.0-19.0-0.3","oncfgqwzj2g7shh","1","5f3430f7b2ea6115cb8564bb","23","195","6.0","Male","Asian ","No   ","Undergraduate degree ","Yes, Undergraduate studies ","N/A","N/A","N/A","3","3","3","4","4","00:00","00:00","08:00","02:00","00:00","00:00","00:00","02:00","03:00","00:00","00:00","00:00","08:00","02:00","00:00","03:30","02:00","03:00","5","4","3","0","2","13","1","1","3","3","3","1","3","3","3","1","2","1","1","1","1","3","2","3","$30 tonight","$40 tonight","$67 tonight","$34 tonight","$15 tonight","$32 tonight","$83 tonight","$21 tonight","$48 tonight","$40 tonight","$25 tonight","$65 tonight","$24 tonight","$30 tonight","$53 tonight","$47 tonight","$40 tonight","$50 tonight","$45 tonight","$27 tonight","$16 tonight","0.633333328","stim/H080.png","76","76","0.633333328","3","1","2","2","1","3","0","1","3","2","3","2","3","4","1","2","5","5","5","5","5","5","5","3","1","4","4","4","0","2","2","2","2","2","1","2","0","0","3","2","0","1","2","2","2","0","0","agree","null","","","","","","","","stim/T200.png","null","","",""
"html-keyboard-response","26","448896","0.0-19.0-1.3","oncfgqwzj2g7shh","1","5f3430f7b2ea6115cb8564bb","23","195","6.0","Male","Asian ","No   ","Undergraduate degree ","Yes, Undergraduate studies ","N/A","N/A","N/A","3","3","3","4","4","00:00","00:00","08:00","02:00","00:00","00:00","00:00","02:00","03:00","00:00","00:00","00:00","08:00","02:00","00:00","03:30","02:00","03:00","5","4","3","0","2","13","1","1","3","3","3","1","3","3","3","1","2","1","1","1","1","3","2","3","$30 tonight","$40 tonight","$67 tonight","$34 tonight","$15 tonight","$32 tonight","$83 tonight","$21 tonight","$48 tonight","$40 tonight","$25 tonight","$65 tonight","$24 tonight","$30 tonight","$53 tonight","$47 tonight","$40 tonight","$50 tonight","$45 tonight","$27 tonight","$16 tonight","0.633333328","stim/H080.png","76","76","0.633333328","3","1","2","2","1","3","0","1","3","2","3","2","3","4","1","2","5","5","5","5","5","5","5","3","1","4","4","4","0","2","2","2","2","2","1","2","0","0","3","2","0","1","2","2","2","0","0","agree","161","","","","","","","","<div style=""font-size:60px;"">?</div>","65","4","Practice","0.5"
"image-keyboard-response","27","449902","0.0-19.0-0.4","oncfgqwzj2g7shh","1","5f3430f7b2ea6115cb8564bb","23","195","6.0","Male","Asian ","No   ","Undergraduate degree ","Yes, Undergraduate studies ","N/A","N/A","N/A","3","3","3","4","4","00:00","00:00","08:00","02:00","00:00","00:00","00:00","02:00","03:00","00:00","00:00","00:00","08:00","02:00","00:00","03:30","02:00","03:00","5","4","3","0","2","13","1","1","3","3","3","1","3","3","3","1","2","1","1","1","1","3","2","3","$30 tonight","$40 tonight","$67 tonight","$34 tonight","$15 tonight","$32 tonight","$83 tonight","$21 tonight","$48 tonight","$40 tonight","$25 tonight","$65 tonight","$24 tonight","$30 tonight","$53 tonight","$47 tonight","$40 tonight","$50 tonight","$45 tonight","$27 tonight","$16 tonight","0.633333328","stim/H080.png","76","76","0.633333328","3","1","2","2","1","3","0","1","3","2","3","2","3","4","1","2","5","5","5","5","5","5","5","3","1","4","4","4","0","2","2","2","2","2","1","2","0","0","3","2","0","1","2","2","2","0","0","agree","null","","","","","","","","stim/H190.png","null","","",""
"html-keyboard-response","28","450109","0.0-19.0-1.4","oncfgqwzj2g7shh","1","5f3430f7b2ea6115cb8564bb","23","195","6.0","Male","Asian ","No   ","Undergraduate degree ","Yes, Undergraduate studies ","N/A","N/A","N/A","3","3","3","4","4","00:00","00:00","08:00","02:00","00:00","00:00","00:00","02:00","03:00","00:00","00:00","00:00","08:00","02:00","00:00","03:30","02:00","03:00","5","4","3","0","2","13","1","1","3","3","3","1","3","3","3","1","2","1","1","1","1","3","2","3","$30 tonight","$40 tonight","$67 tonight","$34 tonight","$15 tonight","$32 tonight","$83 tonight","$21 tonight","$48 tonight","$40 tonight","$25 tonight","$65 tonight","$24 tonight","$30 tonight","$53 tonight","$47 tonight","$40 tonight","$50 tonight","$45 tonight","$27 tonight","$16 tonight","0.633333328","stim/H080.png","76","76","0.633333328","3","1","2","2","1","3","0","1","3","2","3","2","3","4","1","2","5","5","5","5","5","5","5","3","1","4","4","4","0","2","2","2","2","2","1","2","0","0","3","2","0","1","2","2","2","0","0","agree","207","","","","","","","","<div style=""font-size:60px;"">?</div>","76","5","Practice","0.5"
"image-keyboard-response","29","451111","0.0-19.0-0.5","oncfgqwzj2g7shh","1","5f3430f7b2ea6115cb8564bb","23","195","6.0","Male","Asian ","No   ","Undergraduate degree ","Yes, Undergraduate studies ","N/A","N/A","N/A","3","3","3","4","4","00:00","00:00","08:00","02:00","00:00","00:00","00:00","02:00","03:00","00:00","00:00","00:00","08:00","02:00","00:00","03:30","02:00","03:00","5","4","3","0","2","13","1","1","3","3","3","1","3","3","3","1","2","1","1","1","1","3","2","3","$30 tonight","$40 tonight","$67 tonight","$34 tonight","$15 tonight","$32 tonight","$83 tonight","$21 tonight","$48 tonight","$40 tonight","$25 tonight","$65 tonight","$24 tonight","$30 tonight","$53 tonight","$47 tonight","$40 tonight","$50 tonight","$45 tonight","$27 tonight","$16 tonight","0.633333328","stim/H080.png","76","76","0.633333328","3","1","2","2","1","3","0","1","3","2","3","2","3","4","1","2","5","5","5","5","5","5","5","3","1","4","4","4","0","2","2","2","2","2","1","2","0","0","3","2","0","1","2","2","2","0","0","agree","null","","","","","","","","stim/T270.png","null","","",""
"html-keyboard-response","30","451343","0.0-19.0-1.5","oncfgqwzj2g7shh","1","5f3430f7b2ea6115cb8564bb","23","195","6.0","Male","Asian ","No   ","Undergraduate degree ","Yes, Undergraduate studies ","N/A","N/A","N/A","3","3","3","4","4","00:00","00:00","08:00","02:00","00:00","00:00","00:00","02:00","03:00","00:00","00:00","00:00","08:00","02:00","00:00","03:30","02:00","03:00","5","4","3","0","2","13","1","1","3","3","3","1","3","3","3","1","2","1","1","1","1","3","2","3","$30 tonight","$40 tonight","$67 tonight","$34 tonight","$15 tonight","$32 tonight","$83 tonight","$21 tonight","$48 tonight","$40 tonight","$25 tonight","$65 tonight","$24 tonight","$30 tonight","$53 tonight","$47 tonight","$40 tonight","$50 tonight","$45 tonight","$27 tonight","$16 tonight","0.633333328","stim/H080.png","76","76","0.633333328","3","1","2","2","1","3","0","1","3","2","3","2","3","4","1","2","5","5","5","5","5","5","5","3","1","4","4","4","0","2","2","2","2","2","1","2","0","0","3","2","0","1","2","2","2","0","0","agree","232","","","","","","","","<div style=""font-size:60px;"">?</div>","65","6","Practice","0.5"
"image-keyboard-response","31","452349","0.0-19.0-0.6","oncfgqwzj2g7shh","1","5f3430f7b2ea6115cb8564bb","23","195","6.0","Male","Asian ","No   ","Undergraduate degree ","Yes, Undergraduate studies ","N/A","N/A","N/A","3","3","3","4","4","00:00","00:00","08:00","02:00","00:00","00:00","00:00","02:00","03:00","00:00","00:00","00:00","08:00","02:00","00:00","03:30","02:00","03:00","5","4","3","0","2","13","1","1","3","3","3","1","3","3","3","1","2","1","1","1","1","3","2","3","$30 tonight","$40 tonight","$67 tonight","$34 tonight","$15 tonight","$32 tonight","$83 tonight","$21 tonight","$48 tonight","$40 tonight","$25 tonight","$65 tonight","$24 tonight","$30 tonight","$53 tonight","$47 tonight","$40 tonight","$50 tonight","$45 tonight","$27 tonight","$16 tonight","0.633333328","stim/H080.png","76","76","0.633333328","3","1","2","2","1","3","0","1","3","2","3","2","3","4","1","2","5","5","5","5","5","5","5","3","1","4","4","4","0","2","2","2","2","2","1","2","0","0","3","2","0","1","2","2","2","0","0","agree","null","","","","","","","","stim/H030.png","null","","",""
"html-keyboard-response","32","452533","0.0-19.0-1.6","oncfgqwzj2g7shh","1","5f3430f7b2ea6115cb8564bb","23","195","6.0","Male","Asian ","No   ","Undergraduate degree ","Yes, Undergraduate studies ","N/A","N/A","N/A","3","3","3","4","4","00:00","00:00","08:00","02:00","00:00","00:00","00:00","02:00","03:00","00:00","00:00","00:00","08:00","02:00","00:00","03:30","02:00","03:00","5","4","3","0","2","13","1","1","3","3","3","1","3","3","3","1","2","1","1","1","1","3","2","3","$30 tonight","$40 tonight","$67 tonight","$34 tonight","$15 tonight","$32 tonight","$83 tonight","$21 tonight","$48 tonight","$40 tonight","$25 tonight","$65 tonight","$24 tonight","$30 tonight","$53 tonight","$47 tonight","$40 tonight","$50 tonight","$45 tonight","$27 tonight","$16 tonight","0.633333328","stim/H080.png","76","76","0.633333328","3","1","2","2","1","3","0","1","3","2","3","2","3","4","1","2","5","5","5","5","5","5","5","3","1","4","4","4","0","2","2","2","2","2","1","2","0","0","3","2","0","1","2","2","2","0","0","agree","181","","","","","","","","<div style=""font-size:60px;"">?</div>","76","7","Practice","0.5"
"image-keyboard-response","33","453537","0.0-19.0-0.7","oncfgqwzj2g7shh","1","5f3430f7b2ea6115cb8564bb","23","195","6.0","Male","Asian ","No   ","Undergraduate degree ","Yes, Undergraduate studies ","N/A","N/A","N/A","3","3","3","4","4","00:00","00:00","08:00","02:00","00:00","00:00","00:00","02:00","03:00","00:00","00:00","00:00","08:00","02:00","00:00","03:30","02:00","03:00","5","4","3","0","2","13","1","1","3","3","3","1","3","3","3","1","2","1","1","1","1","3","2","3","$30 tonight","$40 tonight","$67 tonight","$34 tonight","$15 tonight","$32 tonight","$83 tonight","$21 tonight","$48 tonight","$40 tonight","$25 tonight","$65 tonight","$24 tonight","$30 tonight","$53 tonight","$47 tonight","$40 tonight","$50 tonight","$45 tonight","$27 tonight","$16 tonight","0.633333328","stim/H080.png","76","76","0.633333328","3","1","2","2","1","3","0","1","3","2","3","2","3","4","1","2","5","5","5","5","5","5","5","3","1","4","4","4","0","2","2","2","2","2","1","2","0","0","3","2","0","1","2","2","2","0","0","agree","null","","","","","","","","stim/T100.png","null","","",""
"html-keyboard-response","34","453898","0.0-19.0-1.7","oncfgqwzj2g7shh","1","5f3430f7b2ea6115cb8564bb","23","195","6.0","Male","Asian ","No   ","Undergraduate degree ","Yes, Undergraduate studies ","N/A","N/A","N/A","3","3","3","4","4","00:00","00:00","08:00","02:00","00:00","00:00","00:00","02:00","03:00","00:00","00:00","00:00","08:00","02:00","00:00","03:30","02:00","03:00","5","4","3","0","2","13","1","1","3","3","3","1","3","3","3","1","2","1","1","1","1","3","2","3","$30 tonight","$40 tonight","$67 tonight","$34 tonight","$15 tonight","$32 tonight","$83 tonight","$21 tonight","$48 tonight","$40 tonight","$25 tonight","$65 tonight","$24 tonight","$30 tonight","$53 tonight","$47 tonight","$40 tonight","$50 tonight","$45 tonight","$27 tonight","$16 tonight","0.633333328","stim/H080.png","76","76","0.633333328","3","1","2","2","1","3","0","1","3","2","3","2","3","4","1","2","5","5","5","5","5","5","5","3","1","4","4","4","0","2","2","2","2","2","1","2","0","0","3","2","0","1","2","2","2","0","0","agree","358","","","","","","","","<div style=""font-size:60px;"">?</div>","65","8","Practice","0.5"
"image-keyboard-response","35","454903","0.0-19.0-0.8","oncfgqwzj2g7shh","1","5f3430f7b2ea6115cb8564bb","23","195","6.0","Male","Asian ","No   ","Undergraduate degree ","Yes, Undergraduate studies ","N/A","N/A","N/A","3","3","3","4","4","00:00","00:00","08:00","02:00","00:00","00:00","00:00","02:00","03:00","00:00","00:00","00:00","08:00","02:00","00:00","03:30","02:00","03:00","5","4","3","0","2","13","1","1","3","3","3","1","3","3","3","1","2","1","1","1","1","3","2","3","$30 tonight","$40 tonight","$67 tonight","$34 tonight","$15 tonight","$32 tonight","$83 tonight","$21 tonight","$48 tonight","$40 tonight","$25 tonight","$65 tonight","$24 tonight","$30 tonight","$53 tonight","$47 tonight","$40 tonight","$50 tonight","$45 tonight","$27 tonight","$16 tonight","0.633333328","stim/H080.png","76","76","0.633333328","3","1","2","2","1","3","0","1","3","2","3","2","3","4","1","2","5","5","5","5","5","5","5","3","1","4","4","4","0","2","2","2","2","2","1","2","0","0","3","2","0","1","2","2","2","0","0","agree","null","","","","","","","","stim/T010.png","null","","",""
"html-keyboard-response","36","455034","0.0-19.0-1.8","oncfgqwzj2g7shh","1","5f3430f7b2ea6115cb8564bb","23","195","6.0","Male","Asian ","No   ","Undergraduate degree ","Yes, Undergraduate studies ","N/A","N/A","N/A","3","3","3","4","4","00:00","00:00","08:00","02:00","00:00","00:00","00:00","02:00","03:00","00:00","00:00","00:00","08:00","02:00","00:00","03:30","02:00","03:00","5","4","3","0","2","13","1","1","3","3","3","1","3","3","3","1","2","1","1","1","1","3","2","3","$30 tonight","$40 tonight","$67 tonight","$34 tonight","$15 tonight","$32 tonight","$83 tonight","$21 tonight","$48 tonight","$40 tonight","$25 tonight","$65 tonight","$24 tonight","$30 tonight","$53 tonight","$47 tonight","$40 tonight","$50 tonight","$45 tonight","$27 tonight","$16 tonight","0.633333328","stim/H080.png","76","76","0.633333328","3","1","2","2","1","3","0","1","3","2","3","2","3","4","1","2","5","5","5","5","5","5","5","3","1","4","4","4","0","2","2","2","2","2","1","2","0","0","3","2","0","1","2","2","2","0","0","agree","131","","","","","","","","<div style=""font-size:60px;"">?</div>","65","9","Practice","0.5"
"image-keyboard-response","37","456037","0.0-19.0-0.9","oncfgqwzj2g7shh","1","5f3430f7b2ea6115cb8564bb","23","195","6.0","Male","Asian ","No   ","Undergraduate degree ","Yes, Undergraduate studies ","N/A","N/A","N/A","3","3","3","4","4","00:00","00:00","08:00","02:00","00:00","00:00","00:00","02:00","03:00","00:00","00:00","00:00","08:00","02:00","00:00","03:30","02:00","03:00","5","4","3","0","2","13","1","1","3","3","3","1","3","3","3","1","2","1","1","1","1","3","2","3","$30 tonight","$40 tonight","$67 tonight","$34 tonight","$15 tonight","$32 tonight","$83 tonight","$21 tonight","$48 tonight","$40 tonight","$25 tonight","$65 tonight","$24 tonight","$30 tonight","$53 tonight","$47 tonight","$40 tonight","$50 tonight","$45 tonight","$27 tonight","$16 tonight","0.633333328","stim/H080.png","76","76","0.633333328","3","1","2","2","1","3","0","1","3","2","3","2","3","4","1","2","5","5","5","5","5","5","5","3","1","4","4","4","0","2","2","2","2","2","1","2","0","0","3","2","0","1","2","2","2","0","0","agree","null","","","","","","","","stim/H300.png","null","","",""
"html-keyboard-response","38","456203","0.0-19.0-1.9","oncfgqwzj2g7shh","1","5f3430f7b2ea6115cb8564bb","23","195","6.0","Male","Asian ","No   ","Undergraduate degree ","Yes, Undergraduate studies ","N/A","N/A","N/A","3","3","3","4","4","00:00","00:00","08:00","02:00","00:00","00:00","00:00","02:00","03:00","00:00","00:00","00:00","08:00","02:00","00:00","03:30","02:00","03:00","5","4","3","0","2","13","1","1","3","3","3","1","3","3","3","1","2","1","1","1","1","3","2","3","$30 tonight","$40 tonight","$67 tonight","$34 tonight","$15 tonight","$32 tonight","$83 tonight","$21 tonight","$48 tonight","$40 tonight","$25 tonight","$65 tonight","$24 tonight","$30 tonight","$53 tonight","$47 tonight","$40 tonight","$50 tonight","$45 tonight","$27 tonight","$16 tonight","0.633333328","stim/H080.png","76","76","0.633333328","3","1","2","2","1","3","0","1","3","2","3","2","3","4","1","2","5","5","5","5","5","5","5","3","1","4","4","4","0","2","2","2","2","2","1","2","0","0","3","2","0","1","2","2","2","0","0","agree","165","","","","","","","","<div style=""font-size:60px;"">?</div>","76","10","Practice","0.5"
"html-keyboard-response","39","461785","0.0-20.0","oncfgqwzj2g7shh","1","5f3430f7b2ea6115cb8564bb","23","195","6.0","Male","Asian ","No   ","Undergraduate degree ","Yes, Undergraduate studies ","N/A","N/A","N/A","3","3","3","4","4","00:00","00:00","08:00","02:00","00:00","00:00","00:00","02:00","03:00","00:00","00:00","00:00","08:00","02:00","00:00","03:30","02:00","03:00","5","4","3","0","2","13","1","1","3","3","3","1","3","3","3","1","2","1","1","1","1","3","2","3","$30 tonight","$40 tonight","$67 tonight","$34 tonight","$15 tonight","$32 tonight","$83 tonight","$21 tonight","$48 tonight","$40 tonight","$25 tonight","$65 tonight","$24 tonight","$30 tonight","$53 tonight","$47 tonight","$40 tonight","$50 tonight","$45 tonight","$27 tonight","$16 tonight","0.633333328","stim/H080.png","76","76","0.633333328","3","1","2","2","1","3","0","1","3","2","3","2","3","4","1","2","5","5","5","5","5","5","5","3","1","4","4","4","0","2","2","2","2","2","1","2","0","0","3","2","0","1","2","2","2","0","0","agree","5079","","","","","","","","<p>You have now completed the practice series.</p><p>If you have any questions, please reload this page and read the instructions again.</p><p>Otherwise, you're ready to begin the study.</p><p><strong>REMEMBER</strong>: Press <b>L </b>when you think the model is overweight, and <b>A </b>if not. </p><p>Press SPACE when you're ready to start!</p>","32","","",""
"html-keyboard-response","40","463268","0.0-21.0","oncfgqwzj2g7shh","1","5f3430f7b2ea6115cb8564bb","23","195","6.0","Male","Asian ","No   ","Undergraduate degree ","Yes, Undergraduate studies ","N/A","N/A","N/A","3","3","3","4","4","00:00","00:00","08:00","02:00","00:00","00:00","00:00","02:00","03:00","00:00","00:00","00:00","08:00","02:00","00:00","03:30","02:00","03:00","5","4","3","0","2","13","1","1","3","3","3","1","3","3","3","1","2","1","1","1","1","3","2","3","$30 tonight","$40 tonight","$67 tonight","$34 tonight","$15 tonight","$32 tonight","$83 tonight","$21 tonight","$48 tonight","$40 tonight","$25 tonight","$65 tonight","$24 tonight","$30 tonight","$53 tonight","$47 tonight","$40 tonight","$50 tonight","$45 tonight","$27 tonight","$16 tonight","0.633333328","stim/H080.png","76","76","0.633333328","3","1","2","2","1","3","0","1","3","2","3","2","3","4","1","2","5","5","5","5","5","5","5","3","1","4","4","4","0","2","2","2","2","2","1","2","0","0","3","2","0","1","2","2","2","0","0","agree","983","","","","","","","","<p>Block 1</p><p>Press SPACE to continue.</p>","32","","",""
"image-keyboard-response","41","464771","0.0-22.0-0.0","oncfgqwzj2g7shh","1","5f3430f7b2ea6115cb8564bb","23","195","6.0","Male","Asian ","No   ","Undergraduate degree ","Yes, Undergraduate studies ","N/A","N/A","N/A","3","3","3","4","4","00:00","00:00","08:00","02:00","00:00","00:00","00:00","02:00","03:00","00:00","00:00","00:00","08:00","02:00","00:00","03:30","02:00","03:00","5","4","3","0","2","13","1","1","3","3","3","1","3","3","3","1","2","1","1","1","1","3","2","3","$30 tonight","$40 tonight","$67 tonight","$34 tonight","$15 tonight","$32 tonight","$83 tonight","$21 tonight","$48 tonight","$40 tonight","$25 tonight","$65 tonight","$24 tonight","$30 tonight","$53 tonight","$47 tonight","$40 tonight","$50 tonight","$45 tonight","$27 tonight","$16 tonight","0.633333328","stim/H080.png","76","76","0.633333328","3","1","2","2","1","3","0","1","3","2","3","2","3","4","1","2","5","5","5","5","5","5","5","3","1","4","4","4","0","2","2","2","2","2","1","2","0","0","3","2","0","1","2","2","2","0","0","agree","null","","","","","","","","stim/T050.png","null","","",""
"html-keyboard-response","42","464985","0.0-22.0-1.0","oncfgqwzj2g7shh","1","5f3430f7b2ea6115cb8564bb","23","195","6.0","Male","Asian ","No   ","Undergraduate degree ","Yes, Undergraduate studies ","N/A","N/A","N/A","3","3","3","4","4","00:00","00:00","08:00","02:00","00:00","00:00","00:00","02:00","03:00","00:00","00:00","00:00","08:00","02:00","00:00","03:30","02:00","03:00","5","4","3","0","2","13","1","1","3","3","3","1","3","3","3","1","2","1","1","1","1","3","2","3","$30 tonight","$40 tonight","$67 tonight","$34 tonight","$15 tonight","$32 tonight","$83 tonight","$21 tonight","$48 tonight","$40 tonight","$25 tonight","$65 tonight","$24 tonight","$30 tonight","$53 tonight","$47 tonight","$40 tonight","$50 tonight","$45 tonight","$27 tonight","$16 tonight","0.633333328","stim/H080.png","76","76","0.633333328","3","1","2","2","1","3","0","1","3","2","3","2","3","4","1","2","5","5","5","5","5","5","5","3","1","4","4","4","0","2","2","2","2","2","1","2","0","0","3","2","0","1","2","2","2","0","0","agree","214","","","","","","","","<div style=""font-size:60px;"">?</div>","65","1","1","0.5"
"image-keyboard-response","43","465987","0.0-22.0-0.1","oncfgqwzj2g7shh","1","5f3430f7b2ea6115cb8564bb","23","195","6.0","Male","Asian ","No   ","Undergraduate degree ","Yes, Undergraduate studies ","N/A","N/A","N/A","3","3","3","4","4","00:00","00:00","08:00","02:00","00:00","00:00","00:00","02:00","03:00","00:00","00:00","00:00","08:00","02:00","00:00","03:30","02:00","03:00","5","4","3","0","2","13","1","1","3","3","3","1","3","3","3","1","2","1","1","1","1","3","2","3","$30 tonight","$40 tonight","$67 tonight","$34 tonight","$15 tonight","$32 tonight","$83 tonight","$21 tonight","$48 tonight","$40 tonight","$25 tonight","$65 tonight","$24 tonight","$30 tonight","$53 tonight","$47 tonight","$40 tonight","$50 tonight","$45 tonight","$27 tonight","$16 tonight","0.633333328","stim/H080.png","76","76","0.633333328","3","1","2","2","1","3","0","1","3","2","3","2","3","4","1","2","5","5","5","5","5","5","5","3","1","4","4","4","0","2","2","2","2","2","1","2","0","0","3","2","0","1","2","2","2","0","0","agree","null","","","","","","","","stim/H010.png","null","","",""
"html-keyboard-response","44","466534","0.0-22.0-1.1","oncfgqwzj2g7shh","1","5f3430f7b2ea6115cb8564bb","23","195","6.0","Male","Asian ","No   ","Undergraduate degree ","Yes, Undergraduate studies ","N/A","N/A","N/A","3","3","3","4","4","00:00","00:00","08:00","02:00","00:00","00:00","00:00","02:00","03:00","00:00","00:00","00:00","08:00","02:00","00:00","03:30","02:00","03:00","5","4","3","0","2","13","1","1","3","3","3","1","3","3","3","1","2","1","1","1","1","3","2","3","$30 tonight","$40 tonight","$67 tonight","$34 tonight","$15 tonight","$32 tonight","$83 tonight","$21 tonight","$48 tonight","$40 tonight","$25 tonight","$65 tonight","$24 tonight","$30 tonight","$53 tonight","$47 tonight","$40 tonight","$50 tonight","$45 tonight","$27 tonight","$16 tonight","0.633333328","stim/H080.png","76","76","0.633333328","3","1","2","2","1","3","0","1","3","2","3","2","3","4","1","2","5","5","5","5","5","5","5","3","1","4","4","4","0","2","2","2","2","2","1","2","0","0","3","2","0","1","2","2","2","0","0","agree","546","","","","","","","","<div style=""font-size:60px;"">?</div>","65","2","1","0.5"
"image-keyboard-response","45","467535","0.0-22.0-0.2","oncfgqwzj2g7shh","1","5f3430f7b2ea6115cb8564bb","23","195","6.0","Male","Asian ","No   ","Undergraduate degree ","Yes, Undergraduate studies ","N/A","N/A","N/A","3","3","3","4","4","00:00","00:00","08:00","02:00","00:00","00:00","00:00","02:00","03:00","00:00","00:00","00:00","08:00","02:00","00:00","03:30","02:00","03:00","5","4","3","0","2","13","1","1","3","3","3","1","3","3","3","1","2","1","1","1","1","3","2","3","$30 tonight","$40 tonight","$67 tonight","$34 tonight","$15 tonight","$32 tonight","$83 tonight","$21 tonight","$48 tonight","$40 tonight","$25 tonight","$65 tonight","$24 tonight","$30 tonight","$53 tonight","$47 tonight","$40 tonight","$50 tonight","$45 tonight","$27 tonight","$16 tonight","0.633333328","stim/H080.png","76","76","0.633333328","3","1","2","2","1","3","0","1","3","2","3","2","3","4","1","2","5","5","5","5","5","5","5","3","1","4","4","4","0","2","2","2","2","2","1","2","0","0","3","2","0","1","2","2","2","0","0","agree","null","","","","","","","","stim/H100.png","null","","",""
"html-keyboard-response","46","467725","0.0-22.0-1.2","oncfgqwzj2g7shh","1","5f3430f7b2ea6115cb8564bb","23","195","6.0","Male","Asian ","No   ","Undergraduate degree ","Yes, Undergraduate studies ","N/A","N/A","N/A","3","3","3","4","4","00:00","00:00","08:00","02:00","00:00","00:00","00:00","02:00","03:00","00:00","00:00","00:00","08:00","02:00","00:00","03:30","02:00","03:00","5","4","3","0","2","13","1","1","3","3","3","1","3","3","3","1","2","1","1","1","1","3","2","3","$30 tonight","$40 tonight","$67 tonight","$34 tonight","$15 tonight","$32 tonight","$83 tonight","$21 tonight","$48 tonight","$40 tonight","$25 tonight","$65 tonight","$24 tonight","$30 tonight","$53 tonight","$47 tonight","$40 tonight","$50 tonight","$45 tonight","$27 tonight","$16 tonight","0.633333328","stim/H080.png","76","76","0.633333328","3","1","2","2","1","3","0","1","3","2","3","2","3","4","1","2","5","5","5","5","5","5","5","3","1","4","4","4","0","2","2","2","2","2","1","2","0","0","3","2","0","1","2","2","2","0","0","agree","188","","","","","","","","<div style=""font-size:60px;"">?</div>","76","3","1","0.5"
"image-keyboard-response","47","468726","0.0-22.0-0.3","oncfgqwzj2g7shh","1","5f3430f7b2ea6115cb8564bb","23","195","6.0","Male","Asian ","No   ","Undergraduate degree ","Yes, Undergraduate studies ","N/A","N/A","N/A","3","3","3","4","4","00:00","00:00","08:00","02:00","00:00","00:00","00:00","02:00","03:00","00:00","00:00","00:00","08:00","02:00","00:00","03:30","02:00","03:00","5","4","3","0","2","13","1","1","3","3","3","1","3","3","3","1","2","1","1","1","1","3","2","3","$30 tonight","$40 tonight","$67 tonight","$34 tonight","$15 tonight","$32 tonight","$83 tonight","$21 tonight","$48 tonight","$40 tonight","$25 tonight","$65 tonight","$24 tonight","$30 tonight","$53 tonight","$47 tonight","$40 tonight","$50 tonight","$45 tonight","$27 tonight","$16 tonight","0.633333328","stim/H080.png","76","76","0.633333328","3","1","2","2","1","3","0","1","3","2","3","2","3","4","1","2","5","5","5","5","5","5","5","3","1","4","4","4","0","2","2","2","2","2","1","2","0","0","3","2","0","1","2","2","2","0","0","agree","null","","","","","","","","stim/H220.png","null","","",""
"html-keyboard-response","48","468816","0.0-22.0-1.3","oncfgqwzj2g7shh","1","5f3430f7b2ea6115cb8564bb","23","195","6.0","Male","Asian ","No   ","Undergraduate degree ","Yes, Undergraduate studies ","N/A","N/A","N/A","3","3","3","4","4","00:00","00:00","08:00","02:00","00:00","00:00","00:00","02:00","03:00","00:00","00:00","00:00","08:00","02:00","00:00","03:30","02:00","03:00","5","4","3","0","2","13","1","1","3","3","3","1","3","3","3","1","2","1","1","1","1","3","2","3","$30 tonight","$40 tonight","$67 tonight","$34 tonight","$15 tonight","$32 tonight","$83 tonight","$21 tonight","$48 tonight","$40 tonight","$25 tonight","$65 tonight","$24 tonight","$30 tonight","$53 tonight","$47 tonight","$40 tonight","$50 tonight","$45 tonight","$27 tonight","$16 tonight","0.633333328","stim/H080.png","76","76","0.633333328","3","1","2","2","1","3","0","1","3","2","3","2","3","4","1","2","5","5","5","5","5","5","5","3","1","4","4","4","0","2","2","2","2","2","1","2","0","0","3","2","0","1","2","2","2","0","0","agree","89","","","","","","","","<div style=""font-size:60px;"">?</div>","76","4","1","0.5"
"image-keyboard-response","49","469820","0.0-22.0-0.4","oncfgqwzj2g7shh","1","5f3430f7b2ea6115cb8564bb","23","195","6.0","Male","Asian ","No   ","Undergraduate degree ","Yes, Undergraduate studies ","N/A","N/A","N/A","3","3","3","4","4","00:00","00:00","08:00","02:00","00:00","00:00","00:00","02:00","03:00","00:00","00:00","00:00","08:00","02:00","00:00","03:30","02:00","03:00","5","4","3","0","2","13","1","1","3","3","3","1","3","3","3","1","2","1","1","1","1","3","2","3","$30 tonight","$40 tonight","$67 tonight","$34 tonight","$15 tonight","$32 tonight","$83 tonight","$21 tonight","$48 tonight","$40 tonight","$25 tonight","$65 tonight","$24 tonight","$30 tonight","$53 tonight","$47 tonight","$40 tonight","$50 tonight","$45 tonight","$27 tonight","$16 tonight","0.633333328","stim/H080.png","76","76","0.633333328","3","1","2","2","1","3","0","1","3","2","3","2","3","4","1","2","5","5","5","5","5","5","5","3","1","4","4","4","0","2","2","2","2","2","1","2","0","0","3","2","0","1","2","2","2","0","0","agree","null","","","","","","","","stim/H030.png","null","","",""
"html-keyboard-response","50","470009","0.0-22.0-1.4","oncfgqwzj2g7shh","1","5f3430f7b2ea6115cb8564bb","23","195","6.0","Male","Asian ","No   ","Undergraduate degree ","Yes, Undergraduate studies ","N/A","N/A","N/A","3","3","3","4","4","00:00","00:00","08:00","02:00","00:00","00:00","00:00","02:00","03:00","00:00","00:00","00:00","08:00","02:00","00:00","03:30","02:00","03:00","5","4","3","0","2","13","1","1","3","3","3","1","3","3","3","1","2","1","1","1","1","3","2","3","$30 tonight","$40 tonight","$67 tonight","$34 tonight","$15 tonight","$32 tonight","$83 tonight","$21 tonight","$48 tonight","$40 tonight","$25 tonight","$65 tonight","$24 tonight","$30 tonight","$53 tonight","$47 tonight","$40 tonight","$50 tonight","$45 tonight","$27 tonight","$16 tonight","0.633333328","stim/H080.png","76","76","0.633333328","3","1","2","2","1","3","0","1","3","2","3","2","3","4","1","2","5","5","5","5","5","5","5","3","1","4","4","4","0","2","2","2","2","2","1","2","0","0","3","2","0","1","2","2","2","0","0","agree","189","","","","","","","","<div style=""font-size:60px;"">?</div>","65","5","1","0.5"
"image-keyboard-response","51","471013","0.0-22.0-0.5","oncfgqwzj2g7shh","1","5f3430f7b2ea6115cb8564bb","23","195","6.0","Male","Asian ","No   ","Undergraduate degree ","Yes, Undergraduate studies ","N/A","N/A","N/A","3","3","3","4","4","00:00","00:00","08:00","02:00","00:00","00:00","00:00","02:00","03:00","00:00","00:00","00:00","08:00","02:00","00:00","03:30","02:00","03:00","5","4","3","0","2","13","1","1","3","3","3","1","3","3","3","1","2","1","1","1","1","3","2","3","$30 tonight","$40 tonight","$67 tonight","$34 tonight","$15 tonight","$32 tonight","$83 tonight","$21 tonight","$48 tonight","$40 tonight","$25 tonight","$65 tonight","$24 tonight","$30 tonight","$53 tonight","$47 tonight","$40 tonight","$50 tonight","$45 tonight","$27 tonight","$16 tonight","0.633333328","stim/H080.png","76","76","0.633333328","3","1","2","2","1","3","0","1","3","2","3","2","3","4","1","2","5","5","5","5","5","5","5","3","1","4","4","4","0","2","2","2","2","2","1","2","0","0","3","2","0","1","2","2","2","0","0","agree","null","","","","","","","","stim/H140.png","null","","",""
"html-keyboard-response","52","471111","0.0-22.0-1.5","oncfgqwzj2g7shh","1","5f3430f7b2ea6115cb8564bb","23","195","6.0","Male","Asian ","No   ","Undergraduate degree ","Yes, Undergraduate studies ","N/A","N/A","N/A","3","3","3","4","4","00:00","00:00","08:00","02:00","00:00","00:00","00:00","02:00","03:00","00:00","00:00","00:00","08:00","02:00","00:00","03:30","02:00","03:00","5","4","3","0","2","13","1","1","3","3","3","1","3","3","3","1","2","1","1","1","1","3","2","3","$30 tonight","$40 tonight","$67 tonight","$34 tonight","$15 tonight","$32 tonight","$83 tonight","$21 tonight","$48 tonight","$40 tonight","$25 tonight","$65 tonight","$24 tonight","$30 tonight","$53 tonight","$47 tonight","$40 tonight","$50 tonight","$45 tonight","$27 tonight","$16 tonight","0.633333328","stim/H080.png","76","76","0.633333328","3","1","2","2","1","3","0","1","3","2","3","2","3","4","1","2","5","5","5","5","5","5","5","3","1","4","4","4","0","2","2","2","2","2","1","2","0","0","3","2","0","1","2","2","2","0","0","agree","97","","","","","","","","<div style=""font-size:60px;"">?</div>","76","6","1","0.5"
"image-keyboard-response","53","472113","0.0-22.0-0.6","oncfgqwzj2g7shh","1","5f3430f7b2ea6115cb8564bb","23","195","6.0","Male","Asian ","No   ","Undergraduate degree ","Yes, Undergraduate studies ","N/A","N/A","N/A","3","3","3","4","4","00:00","00:00","08:00","02:00","00:00","00:00","00:00","02:00","03:00","00:00","00:00","00:00","08:00","02:00","00:00","03:30","02:00","03:00","5","4","3","0","2","13","1","1","3","3","3","1","3","3","3","1","2","1","1","1","1","3","2","3","$30 tonight","$40 tonight","$67 tonight","$34 tonight","$15 tonight","$32 tonight","$83 tonight","$21 tonight","$48 tonight","$40 tonight","$25 tonight","$65 tonight","$24 tonight","$30 tonight","$53 tonight","$47 tonight","$40 tonight","$50 tonight","$45 tonight","$27 tonight","$16 tonight","0.633333328","stim/H080.png","76","76","0.633333328","3","1","2","2","1","3","0","1","3","2","3","2","3","4","1","2","5","5","5","5","5","5","5","3","1","4","4","4","0","2","2","2","2","2","1","2","0","0","3","2","0","1","2","2","2","0","0","agree","null","","","","","","","","stim/T220.png","null","","",""
"html-keyboard-response","54","472216","0.0-22.0-1.6","oncfgqwzj2g7shh","1","5f3430f7b2ea6115cb8564bb","23","195","6.0","Male","Asian ","No   ","Undergraduate degree ","Yes, Undergraduate studies ","N/A","N/A","N/A","3","3","3","4","4","00:00","00:00","08:00","02:00","00:00","00:00","00:00","02:00","03:00","00:00","00:00","00:00","08:00","02:00","00:00","03:30","02:00","03:00","5","4","3","0","2","13","1","1","3","3","3","1","3","3","3","1","2","1","1","1","1","3","2","3","$30 tonight","$40 tonight","$67 tonight","$34 tonight","$15 tonight","$32 tonight","$83 tonight","$21 tonight","$48 tonight","$40 tonight","$25 tonight","$65 tonight","$24 tonight","$30 tonight","$53 tonight","$47 tonight","$40 tonight","$50 tonight","$45 tonight","$27 tonight","$16 tonight","0.633333328","stim/H080.png","76","76","0.633333328","3","1","2","2","1","3","0","1","3","2","3","2","3","4","1","2","5","5","5","5","5","5","5","3","1","4","4","4","0","2","2","2","2","2","1","2","0","0","3","2","0","1","2","2","2","0","0","agree","103","","","","","","","","<div style=""font-size:60px;"">?</div>","65","7","1","0.5"
"image-keyboard-response","55","473220","0.0-22.0-0.7","oncfgqwzj2g7shh","1","5f3430f7b2ea6115cb8564bb","23","195","6.0","Male","Asian ","No   ","Undergraduate degree ","Yes, Undergraduate studies ","N/A","N/A","N/A","3","3","3","4","4","00:00","00:00","08:00","02:00","00:00","00:00","00:00","02:00","03:00","00:00","00:00","00:00","08:00","02:00","00:00","03:30","02:00","03:00","5","4","3","0","2","13","1","1","3","3","3","1","3","3","3","1","2","1","1","1","1","3","2","3","$30 tonight","$40 tonight","$67 tonight","$34 tonight","$15 tonight","$32 tonight","$83 tonight","$21 tonight","$48 tonight","$40 tonight","$25 tonight","$65 tonight","$24 tonight","$30 tonight","$53 tonight","$47 tonight","$40 tonight","$50 tonight","$45 tonight","$27 tonight","$16 tonight","0.633333328","stim/H080.png","76","76","0.633333328","3","1","2","2","1","3","0","1","3","2","3","2","3","4","1","2","5","5","5","5","5","5","5","3","1","4","4","4","0","2","2","2","2","2","1","2","0","0","3","2","0","1","2","2","2","0","0","agree","null","","","","","","","","stim/T060.png","null","","",""
"html-keyboard-response","56","473440","0.0-22.0-1.7","oncfgqwzj2g7shh","1","5f3430f7b2ea6115cb8564bb","23","195","6.0","Male","Asian ","No   ","Undergraduate degree ","Yes, Undergraduate studies ","N/A","N/A","N/A","3","3","3","4","4","00:00","00:00","08:00","02:00","00:00","00:00","00:00","02:00","03:00","00:00","00:00","00:00","08:00","02:00","00:00","03:30","02:00","03:00","5","4","3","0","2","13","1","1","3","3","3","1","3","3","3","1","2","1","1","1","1","3","2","3","$30 tonight","$40 tonight","$67 tonight","$34 tonight","$15 tonight","$32 tonight","$83 tonight","$21 tonight","$48 tonight","$40 tonight","$25 tonight","$65 tonight","$24 tonight","$30 tonight","$53 tonight","$47 tonight","$40 tonight","$50 tonight","$45 tonight","$27 tonight","$16 tonight","0.633333328","stim/H080.png","76","76","0.633333328","3","1","2","2","1","3","0","1","3","2","3","2","3","4","1","2","5","5","5","5","5","5","5","3","1","4","4","4","0","2","2","2","2","2","1","2","0","0","3","2","0","1","2","2","2","0","0","agree","220","","","","","","","","<div style=""font-size:60px;"">?</div>","65","8","1","0.5"
"image-keyboard-response","57","474442","0.0-22.0-0.8","oncfgqwzj2g7shh","1","5f3430f7b2ea6115cb8564bb","23","195","6.0","Male","Asian ","No   ","Undergraduate degree ","Yes, Undergraduate studies ","N/A","N/A","N/A","3","3","3","4","4","00:00","00:00","08:00","02:00","00:00","00:00","00:00","02:00","03:00","00:00","00:00","00:00","08:00","02:00","00:00","03:30","02:00","03:00","5","4","3","0","2","13","1","1","3","3","3","1","3","3","3","1","2","1","1","1","1","3","2","3","$30 tonight","$40 tonight","$67 tonight","$34 tonight","$15 tonight","$32 tonight","$83 tonight","$21 tonight","$48 tonight","$40 tonight","$25 tonight","$65 tonight","$24 tonight","$30 tonight","$53 tonight","$47 tonight","$40 tonight","$50 tonight","$45 tonight","$27 tonight","$16 tonight","0.633333328","stim/H080.png","76","76","0.633333328","3","1","2","2","1","3","0","1","3","2","3","2","3","4","1","2","5","5","5","5","5","5","5","3","1","4","4","4","0","2","2","2","2","2","1","2","0","0","3","2","0","1","2","2","2","0","0","agree","null","","","","","","","","stim/H200.png","null","","",""
"html-keyboard-response","58","474456","0.0-22.0-1.8","oncfgqwzj2g7shh","1","5f3430f7b2ea6115cb8564bb","23","195","6.0","Male","Asian ","No   ","Undergraduate degree ","Yes, Undergraduate studies ","N/A","N/A","N/A","3","3","3","4","4","00:00","00:00","08:00","02:00","00:00","00:00","00:00","02:00","03:00","00:00","00:00","00:00","08:00","02:00","00:00","03:30","02:00","03:00","5","4","3","0","2","13","1","1","3","3","3","1","3","3","3","1","2","1","1","1","1","3","2","3","$30 tonight","$40 tonight","$67 tonight","$34 tonight","$15 tonight","$32 tonight","$83 tonight","$21 tonight","$48 tonight","$40 tonight","$25 tonight","$65 tonight","$24 tonight","$30 tonight","$53 tonight","$47 tonight","$40 tonight","$50 tonight","$45 tonight","$27 tonight","$16 tonight","0.633333328","stim/H080.png","76","76","0.633333328","3","1","2","2","1","3","0","1","3","2","3","2","3","4","1","2","5","5","5","5","5","5","5","3","1","4","4","4","0","2","2","2","2","2","1","2","0","0","3","2","0","1","2","2","2","0","0","agree","12","","","","","","","","<div style=""font-size:60px;"">?</div>","76","9","1","0.5"
"image-keyboard-response","59","475457","0.0-22.0-0.9","oncfgqwzj2g7shh","1","5f3430f7b2ea6115cb8564bb","23","195","6.0","Male","Asian ","No   ","Undergraduate degree ","Yes, Undergraduate studies ","N/A","N/A","N/A","3","3","3","4","4","00:00","00:00","08:00","02:00","00:00","00:00","00:00","02:00","03:00","00:00","00:00","00:00","08:00","02:00","00:00","03:30","02:00","03:00","5","4","3","0","2","13","1","1","3","3","3","1","3","3","3","1","2","1","1","1","1","3","2","3","$30 tonight","$40 tonight","$67 tonight","$34 tonight","$15 tonight","$32 tonight","$83 tonight","$21 tonight","$48 tonight","$40 tonight","$25 tonight","$65 tonight","$24 tonight","$30 tonight","$53 tonight","$47 tonight","$40 tonight","$50 tonight","$45 tonight","$27 tonight","$16 tonight","0.633333328","stim/H080.png","76","76","0.633333328","3","1","2","2","1","3","0","1","3","2","3","2","3","4","1","2","5","5","5","5","5","5","5","3","1","4","4","4","0","2","2","2","2","2","1","2","0","0","3","2","0","1","2","2","2","0","0","agree","null","","","","","","","","stim/H020.png","null","","",""
"html-keyboard-response","60","475539","0.0-22.0-1.9","oncfgqwzj2g7shh","1","5f3430f7b2ea6115cb8564bb","23","195","6.0","Male","Asian ","No   ","Undergraduate degree ","Yes, Undergraduate studies ","N/A","N/A","N/A","3","3","3","4","4","00:00","00:00","08:00","02:00","00:00","00:00","00:00","02:00","03:00","00:00","00:00","00:00","08:00","02:00","00:00","03:30","02:00","03:00","5","4","3","0","2","13","1","1","3","3","3","1","3","3","3","1","2","1","1","1","1","3","2","3","$30 tonight","$40 tonight","$67 tonight","$34 tonight","$15 tonight","$32 tonight","$83 tonight","$21 tonight","$48 tonight","$40 tonight","$25 tonight","$65 tonight","$24 tonight","$30 tonight","$53 tonight","$47 tonight","$40 tonight","$50 tonight","$45 tonight","$27 tonight","$16 tonight","0.633333328","stim/H080.png","76","76","0.633333328","3","1","2","2","1","3","0","1","3","2","3","2","3","4","1","2","5","5","5","5","5","5","5","3","1","4","4","4","0","2","2","2","2","2","1","2","0","0","3","2","0","1","2","2","2","0","0","agree","81","","","","","","","","<div style=""font-size:60px;"">?</div>","65","10","1","0.5"
"image-keyboard-response","61","476541","0.0-22.0-0.10","oncfgqwzj2g7shh","1","5f3430f7b2ea6115cb8564bb","23","195","6.0","Male","Asian ","No   ","Undergraduate degree ","Yes, Undergraduate studies ","N/A","N/A","N/A","3","3","3","4","4","00:00","00:00","08:00","02:00","00:00","00:00","00:00","02:00","03:00","00:00","00:00","00:00","08:00","02:00","00:00","03:30","02:00","03:00","5","4","3","0","2","13","1","1","3","3","3","1","3","3","3","1","2","1","1","1","1","3","2","3","$30 tonight","$40 tonight","$67 tonight","$34 tonight","$15 tonight","$32 tonight","$83 tonight","$21 tonight","$48 tonight","$40 tonight","$25 tonight","$65 tonight","$24 tonight","$30 tonight","$53 tonight","$47 tonight","$40 tonight","$50 tonight","$45 tonight","$27 tonight","$16 tonight","0.633333328","stim/H080.png","76","76","0.633333328","3","1","2","2","1","3","0","1","3","2","3","2","3","4","1","2","5","5","5","5","5","5","5","3","1","4","4","4","0","2","2","2","2","2","1","2","0","0","3","2","0","1","2","2","2","0","0","agree","null","","","","","","","","stim/T020.png","null","","",""
"html-keyboard-response","62","476632","0.0-22.0-1.10","oncfgqwzj2g7shh","1","5f3430f7b2ea6115cb8564bb","23","195","6.0","Male","Asian ","No   ","Undergraduate degree ","Yes, Undergraduate studies ","N/A","N/A","N/A","3","3","3","4","4","00:00","00:00","08:00","02:00","00:00","00:00","00:00","02:00","03:00","00:00","00:00","00:00","08:00","02:00","00:00","03:30","02:00","03:00","5","4","3","0","2","13","1","1","3","3","3","1","3","3","3","1","2","1","1","1","1","3","2","3","$30 tonight","$40 tonight","$67 tonight","$34 tonight","$15 tonight","$32 tonight","$83 tonight","$21 tonight","$48 tonight","$40 tonight","$25 tonight","$65 tonight","$24 tonight","$30 tonight","$53 tonight","$47 tonight","$40 tonight","$50 tonight","$45 tonight","$27 tonight","$16 tonight","0.633333328","stim/H080.png","76","76","0.633333328","3","1","2","2","1","3","0","1","3","2","3","2","3","4","1","2","5","5","5","5","5","5","5","3","1","4","4","4","0","2","2","2","2","2","1","2","0","0","3","2","0","1","2","2","2","0","0","agree","89","","","","","","","","<div style=""font-size:60px;"">?</div>","65","11","1","0.5"
"image-keyboard-response","63","477634","0.0-22.0-0.11","oncfgqwzj2g7shh","1","5f3430f7b2ea6115cb8564bb","23","195","6.0","Male","Asian ","No   ","Undergraduate degree ","Yes, Undergraduate studies ","N/A","N/A","N/A","3","3","3","4","4","00:00","00:00","08:00","02:00","00:00","00:00","00:00","02:00","03:00","00:00","00:00","00:00","08:00","02:00","00:00","03:30","02:00","03:00","5","4","3","0","2","13","1","1","3","3","3","1","3","3","3","1","2","1","1","1","1","3","2","3","$30 tonight","$40 tonight","$67 tonight","$34 tonight","$15 tonight","$32 tonight","$83 tonight","$21 tonight","$48 tonight","$40 tonight","$25 tonight","$65 tonight","$24 tonight","$30 tonight","$53 tonight","$47 tonight","$40 tonight","$50 tonight","$45 tonight","$27 tonight","$16 tonight","0.633333328","stim/H080.png","76","76","0.633333328","3","1","2","2","1","3","0","1","3","2","3","2","3","4","1","2","5","5","5","5","5","5","5","3","1","4","4","4","0","2","2","2","2","2","1","2","0","0","3","2","0","1","2","2","2","0","0","agree","null","","","","","","","","stim/H230.png","null","","",""
"html-keyboard-response","64","478308","0.0-22.0-1.11","oncfgqwzj2g7shh","1","5f3430f7b2ea6115cb8564bb","23","195","6.0","Male","Asian ","No   ","Undergraduate degree ","Yes, Undergraduate studies ","N/A","N/A","N/A","3","3","3","4","4","00:00","00:00","08:00","02:00","00:00","00:00","00:00","02:00","03:00","00:00","00:00","00:00","08:00","02:00","00:00","03:30","02:00","03:00","5","4","3","0","2","13","1","1","3","3","3","1","3","3","3","1","2","1","1","1","1","3","2","3","$30 tonight","$40 tonight","$67 tonight","$34 tonight","$15 tonight","$32 tonight","$83 tonight","$21 tonight","$48 tonight","$40 tonight","$25 tonight","$65 tonight","$24 tonight","$30 tonight","$53 tonight","$47 tonight","$40 tonight","$50 tonight","$45 tonight","$27 tonight","$16 tonight","0.633333328","stim/H080.png","76","76","0.633333328","3","1","2","2","1","3","0","1","3","2","3","2","3","4","1","2","5","5","5","5","5","5","5","3","1","4","4","4","0","2","2","2","2","2","1","2","0","0","3","2","0","1","2","2","2","0","0","agree","673","","","","","","","","<div style=""font-size:60px;"">?</div>","76","12","1","0.5"
"image-keyboard-response","65","479308","0.0-22.0-0.12","oncfgqwzj2g7shh","1","5f3430f7b2ea6115cb8564bb","23","195","6.0","Male","Asian ","No   ","Undergraduate degree ","Yes, Undergraduate studies ","N/A","N/A","N/A","3","3","3","4","4","00:00","00:00","08:00","02:00","00:00","00:00","00:00","02:00","03:00","00:00","00:00","00:00","08:00","02:00","00:00","03:30","02:00","03:00","5","4","3","0","2","13","1","1","3","3","3","1","3","3","3","1","2","1","1","1","1","3","2","3","$30 tonight","$40 tonight","$67 tonight","$34 tonight","$15 tonight","$32 tonight","$83 tonight","$21 tonight","$48 tonight","$40 tonight","$25 tonight","$65 tonight","$24 tonight","$30 tonight","$53 tonight","$47 tonight","$40 tonight","$50 tonight","$45 tonight","$27 tonight","$16 tonight","0.633333328","stim/H080.png","76","76","0.633333328","3","1","2","2","1","3","0","1","3","2","3","2","3","4","1","2","5","5","5","5","5","5","5","3","1","4","4","4","0","2","2","2","2","2","1","2","0","0","3","2","0","1","2","2","2","0","0","agree","null","","","","","","","","stim/T090.png","null","","",""
"html-keyboard-response","66","479433","0.0-22.0-1.12","oncfgqwzj2g7shh","1","5f3430f7b2ea6115cb8564bb","23","195","6.0","Male","Asian ","No   ","Undergraduate degree ","Yes, Undergraduate studies ","N/A","N/A","N/A","3","3","3","4","4","00:00","00:00","08:00","02:00","00:00","00:00","00:00","02:00","03:00","00:00","00:00","00:00","08:00","02:00","00:00","03:30","02:00","03:00","5","4","3","0","2","13","1","1","3","3","3","1","3","3","3","1","2","1","1","1","1","3","2","3","$30 tonight","$40 tonight","$67 tonight","$34 tonight","$15 tonight","$32 tonight","$83 tonight","$21 tonight","$48 tonight","$40 tonight","$25 tonight","$65 tonight","$24 tonight","$30 tonight","$53 tonight","$47 tonight","$40 tonight","$50 tonight","$45 tonight","$27 tonight","$16 tonight","0.633333328","stim/H080.png","76","76","0.633333328","3","1","2","2","1","3","0","1","3","2","3","2","3","4","1","2","5","5","5","5","5","5","5","3","1","4","4","4","0","2","2","2","2","2","1","2","0","0","3","2","0","1","2","2","2","0","0","agree","123","","","","","","","","<div style=""font-size:60px;"">?</div>","65","13","1","0.5"
"image-keyboard-response","67","480436","0.0-22.0-0.13","oncfgqwzj2g7shh","1","5f3430f7b2ea6115cb8564bb","23","195","6.0","Male","Asian ","No   ","Undergraduate degree ","Yes, Undergraduate studies ","N/A","N/A","N/A","3","3","3","4","4","00:00","00:00","08:00","02:00","00:00","00:00","00:00","02:00","03:00","00:00","00:00","00:00","08:00","02:00","00:00","03:30","02:00","03:00","5","4","3","0","2","13","1","1","3","3","3","1","3","3","3","1","2","1","1","1","1","3","2","3","$30 tonight","$40 tonight","$67 tonight","$34 tonight","$15 tonight","$32 tonight","$83 tonight","$21 tonight","$48 tonight","$40 tonight","$25 tonight","$65 tonight","$24 tonight","$30 tonight","$53 tonight","$47 tonight","$40 tonight","$50 tonight","$45 tonight","$27 tonight","$16 tonight","0.633333328","stim/H080.png","76","76","0.633333328","3","1","2","2","1","3","0","1","3","2","3","2","3","4","1","2","5","5","5","5","5","5","5","3","1","4","4","4","0","2","2","2","2","2","1","2","0","0","3","2","0","1","2","2","2","0","0","agree","null","","","","","","","","stim/H230.png","null","","",""
"html-keyboard-response","68","480517","0.0-22.0-1.13","oncfgqwzj2g7shh","1","5f3430f7b2ea6115cb8564bb","23","195","6.0","Male","Asian ","No   ","Undergraduate degree ","Yes, Undergraduate studies ","N/A","N/A","N/A","3","3","3","4","4","00:00","00:00","08:00","02:00","00:00","00:00","00:00","02:00","03:00","00:00","00:00","00:00","08:00","02:00","00:00","03:30","02:00","03:00","5","4","3","0","2","13","1","1","3","3","3","1","3","3","3","1","2","1","1","1","1","3","2","3","$30 tonight","$40 tonight","$67 tonight","$34 tonight","$15 tonight","$32 tonight","$83 tonight","$21 tonight","$48 tonight","$40 tonight","$25 tonight","$65 tonight","$24 tonight","$30 tonight","$53 tonight","$47 tonight","$40 tonight","$50 tonight","$45 tonight","$27 tonight","$16 tonight","0.633333328","stim/H080.png","76","76","0.633333328","3","1","2","2","1","3","0","1","3","2","3","2","3","4","1","2","5","5","5","5","5","5","5","3","1","4","4","4","0","2","2","2","2","2","1","2","0","0","3","2","0","1","2","2","2","0","0","agree","80","","","","","","","","<div style=""font-size:60px;"">?</div>","76","14","1","0.5"
"image-keyboard-response","69","481519","0.0-22.0-0.14","oncfgqwzj2g7shh","1","5f3430f7b2ea6115cb8564bb","23","195","6.0","Male","Asian ","No   ","Undergraduate degree ","Yes, Undergraduate studies ","N/A","N/A","N/A","3","3","3","4","4","00:00","00:00","08:00","02:00","00:00","00:00","00:00","02:00","03:00","00:00","00:00","00:00","08:00","02:00","00:00","03:30","02:00","03:00","5","4","3","0","2","13","1","1","3","3","3","1","3","3","3","1","2","1","1","1","1","3","2","3","$30 tonight","$40 tonight","$67 tonight","$34 tonight","$15 tonight","$32 tonight","$83 tonight","$21 tonight","$48 tonight","$40 tonight","$25 tonight","$65 tonight","$24 tonight","$30 tonight","$53 tonight","$47 tonight","$40 tonight","$50 tonight","$45 tonight","$27 tonight","$16 tonight","0.633333328","stim/H080.png","76","76","0.633333328","3","1","2","2","1","3","0","1","3","2","3","2","3","4","1","2","5","5","5","5","5","5","5","3","1","4","4","4","0","2","2","2","2","2","1","2","0","0","3","2","0","1","2","2","2","0","0","agree","null","","","","","","","","stim/T020.png","null","","",""
"html-keyboard-response","70","481664","0.0-22.0-1.14","oncfgqwzj2g7shh","1","5f3430f7b2ea6115cb8564bb","23","195","6.0","Male","Asian ","No   ","Undergraduate degree ","Yes, Undergraduate studies ","N/A","N/A","N/A","3","3","3","4","4","00:00","00:00","08:00","02:00","00:00","00:00","00:00","02:00","03:00","00:00","00:00","00:00","08:00","02:00","00:00","03:30","02:00","03:00","5","4","3","0","2","13","1","1","3","3","3","1","3","3","3","1","2","1","1","1","1","3","2","3","$30 tonight","$40 tonight","$67 tonight","$34 tonight","$15 tonight","$32 tonight","$83 tonight","$21 tonight","$48 tonight","$40 tonight","$25 tonight","$65 tonight","$24 tonight","$30 tonight","$53 tonight","$47 tonight","$40 tonight","$50 tonight","$45 tonight","$27 tonight","$16 tonight","0.633333328","stim/H080.png","76","76","0.633333328","3","1","2","2","1","3","0","1","3","2","3","2","3","4","1","2","5","5","5","5","5","5","5","3","1","4","4","4","0","2","2","2","2","2","1","2","0","0","3","2","0","1","2","2","2","0","0","agree","144","","","","","","","","<div style=""font-size:60px;"">?</div>","65","15","1","0.5"
"image-keyboard-response","71","482667","0.0-22.0-0.15","oncfgqwzj2g7shh","1","5f3430f7b2ea6115cb8564bb","23","195","6.0","Male","Asian ","No   ","Undergraduate degree ","Yes, Undergraduate studies ","N/A","N/A","N/A","3","3","3","4","4","00:00","00:00","08:00","02:00","00:00","00:00","00:00","02:00","03:00","00:00","00:00","00:00","08:00","02:00","00:00","03:30","02:00","03:00","5","4","3","0","2","13","1","1","3","3","3","1","3","3","3","1","2","1","1","1","1","3","2","3","$30 tonight","$40 tonight","$67 tonight","$34 tonight","$15 tonight","$32 tonight","$83 tonight","$21 tonight","$48 tonight","$40 tonight","$25 tonight","$65 tonight","$24 tonight","$30 tonight","$53 tonight","$47 tonight","$40 tonight","$50 tonight","$45 tonight","$27 tonight","$16 tonight","0.633333328","stim/H080.png","76","76","0.633333328","3","1","2","2","1","3","0","1","3","2","3","2","3","4","1","2","5","5","5","5","5","5","5","3","1","4","4","4","0","2","2","2","2","2","1","2","0","0","3","2","0","1","2","2","2","0","0","agree","null","","","","","","","","stim/T130.png","null","","",""
"html-keyboard-response","72","482713","0.0-22.0-1.15","oncfgqwzj2g7shh","1","5f3430f7b2ea6115cb8564bb","23","195","6.0","Male","Asian ","No   ","Undergraduate degree ","Yes, Undergraduate studies ","N/A","N/A","N/A","3","3","3","4","4","00:00","00:00","08:00","02:00","00:00","00:00","00:00","02:00","03:00","00:00","00:00","00:00","08:00","02:00","00:00","03:30","02:00","03:00","5","4","3","0","2","13","1","1","3","3","3","1","3","3","3","1","2","1","1","1","1","3","2","3","$30 tonight","$40 tonight","$67 tonight","$34 tonight","$15 tonight","$32 tonight","$83 tonight","$21 tonight","$48 tonight","$40 tonight","$25 tonight","$65 tonight","$24 tonight","$30 tonight","$53 tonight","$47 tonight","$40 tonight","$50 tonight","$45 tonight","$27 tonight","$16 tonight","0.633333328","stim/H080.png","76","76","0.633333328","3","1","2","2","1","3","0","1","3","2","3","2","3","4","1","2","5","5","5","5","5","5","5","3","1","4","4","4","0","2","2","2","2","2","1","2","0","0","3","2","0","1","2","2","2","0","0","agree","45","","","","","","","","<div style=""font-size:60px;"">?</div>","65","16","1","0.5"
"image-keyboard-response","73","483716","0.0-22.0-0.16","oncfgqwzj2g7shh","1","5f3430f7b2ea6115cb8564bb","23","195","6.0","Male","Asian ","No   ","Undergraduate degree ","Yes, Undergraduate studies ","N/A","N/A","N/A","3","3","3","4","4","00:00","00:00","08:00","02:00","00:00","00:00","00:00","02:00","03:00","00:00","00:00","00:00","08:00","02:00","00:00","03:30","02:00","03:00","5","4","3","0","2","13","1","1","3","3","3","1","3","3","3","1","2","1","1","1","1","3","2","3","$30 tonight","$40 tonight","$67 tonight","$34 tonight","$15 tonight","$32 tonight","$83 tonight","$21 tonight","$48 tonight","$40 tonight","$25 tonight","$65 tonight","$24 tonight","$30 tonight","$53 tonight","$47 tonight","$40 tonight","$50 tonight","$45 tonight","$27 tonight","$16 tonight","0.633333328","stim/H080.png","76","76","0.633333328","3","1","2","2","1","3","0","1","3","2","3","2","3","4","1","2","5","5","5","5","5","5","5","3","1","4","4","4","0","2","2","2","2","2","1","2","0","0","3","2","0","1","2","2","2","0","0","agree","null","","","","","","","","stim/T090.png","null","","",""
"html-keyboard-response","74","483807","0.0-22.0-1.16","oncfgqwzj2g7shh","1","5f3430f7b2ea6115cb8564bb","23","195","6.0","Male","Asian ","No   ","Undergraduate degree ","Yes, Undergraduate studies ","N/A","N/A","N/A","3","3","3","4","4","00:00","00:00","08:00","02:00","00:00","00:00","00:00","02:00","03:00","00:00","00:00","00:00","08:00","02:00","00:00","03:30","02:00","03:00","5","4","3","0","2","13","1","1","3","3","3","1","3","3","3","1","2","1","1","1","1","3","2","3","$30 tonight","$40 tonight","$67 tonight","$34 tonight","$15 tonight","$32 tonight","$83 tonight","$21 tonight","$48 tonight","$40 tonight","$25 tonight","$65 tonight","$24 tonight","$30 tonight","$53 tonight","$47 tonight","$40 tonight","$50 tonight","$45 tonight","$27 tonight","$16 tonight","0.633333328","stim/H080.png","76","76","0.633333328","3","1","2","2","1","3","0","1","3","2","3","2","3","4","1","2","5","5","5","5","5","5","5","3","1","4","4","4","0","2","2","2","2","2","1","2","0","0","3","2","0","1","2","2","2","0","0","agree","91","","","","","","","","<div style=""font-size:60px;"">?</div>","65","17","1","0.5"
"image-keyboard-response","75","484808","0.0-22.0-0.17","oncfgqwzj2g7shh","1","5f3430f7b2ea6115cb8564bb","23","195","6.0","Male","Asian ","No   ","Undergraduate degree ","Yes, Undergraduate studies ","N/A","N/A","N/A","3","3","3","4","4","00:00","00:00","08:00","02:00","00:00","00:00","00:00","02:00","03:00","00:00","00:00","00:00","08:00","02:00","00:00","03:30","02:00","03:00","5","4","3","0","2","13","1","1","3","3","3","1","3","3","3","1","2","1","1","1","1","3","2","3","$30 tonight","$40 tonight","$67 tonight","$34 tonight","$15 tonight","$32 tonight","$83 tonight","$21 tonight","$48 tonight","$40 tonight","$25 tonight","$65 tonight","$24 tonight","$30 tonight","$53 tonight","$47 tonight","$40 tonight","$50 tonight","$45 tonight","$27 tonight","$16 tonight","0.633333328","stim/H080.png","76","76","0.633333328","3","1","2","2","1","3","0","1","3","2","3","2","3","4","1","2","5","5","5","5","5","5","5","3","1","4","4","4","0","2","2","2","2","2","1","2","0","0","3","2","0","1","2","2","2","0","0","agree","null","","","","","","","","stim/H230.png","null","","",""
"html-keyboard-response","76","484868","0.0-22.0-1.17","oncfgqwzj2g7shh","1","5f3430f7b2ea6115cb8564bb","23","195","6.0","Male","Asian ","No   ","Undergraduate degree ","Yes, Undergraduate studies ","N/A","N/A","N/A","3","3","3","4","4","00:00","00:00","08:00","02:00","00:00","00:00","00:00","02:00","03:00","00:00","00:00","00:00","08:00","02:00","00:00","03:30","02:00","03:00","5","4","3","0","2","13","1","1","3","3","3","1","3","3","3","1","2","1","1","1","1","3","2","3","$30 tonight","$40 tonight","$67 tonight","$34 tonight","$15 tonight","$32 tonight","$83 tonight","$21 tonight","$48 tonight","$40 tonight","$25 tonight","$65 tonight","$24 tonight","$30 tonight","$53 tonight","$47 tonight","$40 tonight","$50 tonight","$45 tonight","$27 tonight","$16 tonight","0.633333328","stim/H080.png","76","76","0.633333328","3","1","2","2","1","3","0","1","3","2","3","2","3","4","1","2","5","5","5","5","5","5","5","3","1","4","4","4","0","2","2","2","2","2","1","2","0","0","3","2","0","1","2","2","2","0","0","agree","58","","","","","","","","<div style=""font-size:60px;"">?</div>","76","18","1","0.5"
"image-keyboard-response","77","485869","0.0-22.0-0.18","oncfgqwzj2g7shh","1","5f3430f7b2ea6115cb8564bb","23","195","6.0","Male","Asian ","No   ","Undergraduate degree ","Yes, Undergraduate studies ","N/A","N/A","N/A","3","3","3","4","4","00:00","00:00","08:00","02:00","00:00","00:00","00:00","02:00","03:00","00:00","00:00","00:00","08:00","02:00","00:00","03:30","02:00","03:00","5","4","3","0","2","13","1","1","3","3","3","1","3","3","3","1","2","1","1","1","1","3","2","3","$30 tonight","$40 tonight","$67 tonight","$34 tonight","$15 tonight","$32 tonight","$83 tonight","$21 tonight","$48 tonight","$40 tonight","$25 tonight","$65 tonight","$24 tonight","$30 tonight","$53 tonight","$47 tonight","$40 tonight","$50 tonight","$45 tonight","$27 tonight","$16 tonight","0.633333328","stim/H080.png","76","76","0.633333328","3","1","2","2","1","3","0","1","3","2","3","2","3","4","1","2","5","5","5","5","5","5","5","3","1","4","4","4","0","2","2","2","2","2","1","2","0","0","3","2","0","1","2","2","2","0","0","agree","null","","","","","","","","stim/T150.png","null","","",""
"html-keyboard-response","78","485950","0.0-22.0-1.18","oncfgqwzj2g7shh","1","5f3430f7b2ea6115cb8564bb","23","195","6.0","Male","Asian ","No   ","Undergraduate degree ","Yes, Undergraduate studies ","N/A","N/A","N/A","3","3","3","4","4","00:00","00:00","08:00","02:00","00:00","00:00","00:00","02:00","03:00","00:00","00:00","00:00","08:00","02:00","00:00","03:30","02:00","03:00","5","4","3","0","2","13","1","1","3","3","3","1","3","3","3","1","2","1","1","1","1","3","2","3","$30 tonight","$40 tonight","$67 tonight","$34 tonight","$15 tonight","$32 tonight","$83 tonight","$21 tonight","$48 tonight","$40 tonight","$25 tonight","$65 tonight","$24 tonight","$30 tonight","$53 tonight","$47 tonight","$40 tonight","$50 tonight","$45 tonight","$27 tonight","$16 tonight","0.633333328","stim/H080.png","76","76","0.633333328","3","1","2","2","1","3","0","1","3","2","3","2","3","4","1","2","5","5","5","5","5","5","5","3","1","4","4","4","0","2","2","2","2","2","1","2","0","0","3","2","0","1","2","2","2","0","0","agree","79","","","","","","","","<div style=""font-size:60px;"">?</div>","65","19","1","0.5"
"image-keyboard-response","79","486951","0.0-22.0-0.19","oncfgqwzj2g7shh","1","5f3430f7b2ea6115cb8564bb","23","195","6.0","Male","Asian ","No   ","Undergraduate degree ","Yes, Undergraduate studies ","N/A","N/A","N/A","3","3","3","4","4","00:00","00:00","08:00","02:00","00:00","00:00","00:00","02:00","03:00","00:00","00:00","00:00","08:00","02:00","00:00","03:30","02:00","03:00","5","4","3","0","2","13","1","1","3","3","3","1","3","3","3","1","2","1","1","1","1","3","2","3","$30 tonight","$40 tonight","$67 tonight","$34 tonight","$15 tonight","$32 tonight","$83 tonight","$21 tonight","$48 tonight","$40 tonight","$25 tonight","$65 tonight","$24 tonight","$30 tonight","$53 tonight","$47 tonight","$40 tonight","$50 tonight","$45 tonight","$27 tonight","$16 tonight","0.633333328","stim/H080.png","76","76","0.633333328","3","1","2","2","1","3","0","1","3","2","3","2","3","4","1","2","5","5","5","5","5","5","5","3","1","4","4","4","0","2","2","2","2","2","1","2","0","0","3","2","0","1","2","2","2","0","0","agree","null","","","","","","","","stim/H170.png","null","","",""
"html-keyboard-response","80","487410","0.0-22.0-1.19","oncfgqwzj2g7shh","1","5f3430f7b2ea6115cb8564bb","23","195","6.0","Male","Asian ","No   ","Undergraduate degree ","Yes, Undergraduate studies ","N/A","N/A","N/A","3","3","3","4","4","00:00","00:00","08:00","02:00","00:00","00:00","00:00","02:00","03:00","00:00","00:00","00:00","08:00","02:00","00:00","03:30","02:00","03:00","5","4","3","0","2","13","1","1","3","3","3","1","3","3","3","1","2","1","1","1","1","3","2","3","$30 tonight","$40 tonight","$67 tonight","$34 tonight","$15 tonight","$32 tonight","$83 tonight","$21 tonight","$48 tonight","$40 tonight","$25 tonight","$65 tonight","$24 tonight","$30 tonight","$53 tonight","$47 tonight","$40 tonight","$50 tonight","$45 tonight","$27 tonight","$16 tonight","0.633333328","stim/H080.png","76","76","0.633333328","3","1","2","2","1","3","0","1","3","2","3","2","3","4","1","2","5","5","5","5","5","5","5","3","1","4","4","4","0","2","2","2","2","2","1","2","0","0","3","2","0","1","2","2","2","0","0","agree","458","","","","","","","","<div style=""font-size:60px;"">?</div>","76","20","1","0.5"
"image-keyboard-response","81","488412","0.0-22.0-0.20","oncfgqwzj2g7shh","1","5f3430f7b2ea6115cb8564bb","23","195","6.0","Male","Asian ","No   ","Undergraduate degree ","Yes, Undergraduate studies ","N/A","N/A","N/A","3","3","3","4","4","00:00","00:00","08:00","02:00","00:00","00:00","00:00","02:00","03:00","00:00","00:00","00:00","08:00","02:00","00:00","03:30","02:00","03:00","5","4","3","0","2","13","1","1","3","3","3","1","3","3","3","1","2","1","1","1","1","3","2","3","$30 tonight","$40 tonight","$67 tonight","$34 tonight","$15 tonight","$32 tonight","$83 tonight","$21 tonight","$48 tonight","$40 tonight","$25 tonight","$65 tonight","$24 tonight","$30 tonight","$53 tonight","$47 tonight","$40 tonight","$50 tonight","$45 tonight","$27 tonight","$16 tonight","0.633333328","stim/H080.png","76","76","0.633333328","3","1","2","2","1","3","0","1","3","2","3","2","3","4","1","2","5","5","5","5","5","5","5","3","1","4","4","4","0","2","2","2","2","2","1","2","0","0","3","2","0","1","2","2","2","0","0","agree","null","","","","","","","","stim/T200.png","null","","",""
"html-keyboard-response","82","488514","0.0-22.0-1.20","oncfgqwzj2g7shh","1","5f3430f7b2ea6115cb8564bb","23","195","6.0","Male","Asian ","No   ","Undergraduate degree ","Yes, Undergraduate studies ","N/A","N/A","N/A","3","3","3","4","4","00:00","00:00","08:00","02:00","00:00","00:00","00:00","02:00","03:00","00:00","00:00","00:00","08:00","02:00","00:00","03:30","02:00","03:00","5","4","3","0","2","13","1","1","3","3","3","1","3","3","3","1","2","1","1","1","1","3","2","3","$30 tonight","$40 tonight","$67 tonight","$34 tonight","$15 tonight","$32 tonight","$83 tonight","$21 tonight","$48 tonight","$40 tonight","$25 tonight","$65 tonight","$24 tonight","$30 tonight","$53 tonight","$47 tonight","$40 tonight","$50 tonight","$45 tonight","$27 tonight","$16 tonight","0.633333328","stim/H080.png","76","76","0.633333328","3","1","2","2","1","3","0","1","3","2","3","2","3","4","1","2","5","5","5","5","5","5","5","3","1","4","4","4","0","2","2","2","2","2","1","2","0","0","3","2","0","1","2","2","2","0","0","agree","102","","","","","","","","<div style=""font-size:60px;"">?</div>","65","21","1","0.5"
"image-keyboard-response","83","489515","0.0-22.0-0.21","oncfgqwzj2g7shh","1","5f3430f7b2ea6115cb8564bb","23","195","6.0","Male","Asian ","No   ","Undergraduate degree ","Yes, Undergraduate studies ","N/A","N/A","N/A","3","3","3","4","4","00:00","00:00","08:00","02:00","00:00","00:00","00:00","02:00","03:00","00:00","00:00","00:00","08:00","02:00","00:00","03:30","02:00","03:00","5","4","3","0","2","13","1","1","3","3","3","1","3","3","3","1","2","1","1","1","1","3","2","3","$30 tonight","$40 tonight","$67 tonight","$34 tonight","$15 tonight","$32 tonight","$83 tonight","$21 tonight","$48 tonight","$40 tonight","$25 tonight","$65 tonight","$24 tonight","$30 tonight","$53 tonight","$47 tonight","$40 tonight","$50 tonight","$45 tonight","$27 tonight","$16 tonight","0.633333328","stim/H080.png","76","76","0.633333328","3","1","2","2","1","3","0","1","3","2","3","2","3","4","1","2","5","5","5","5","5","5","5","3","1","4","4","4","0","2","2","2","2","2","1","2","0","0","3","2","0","1","2","2","2","0","0","agree","null","","","","","","","","stim/T020.png","null","","",""
"html-keyboard-response","84","489607","0.0-22.0-1.21","oncfgqwzj2g7shh","1","5f3430f7b2ea6115cb8564bb","23","195","6.0","Male","Asian ","No   ","Undergraduate degree ","Yes, Undergraduate studies ","N/A","N/A","N/A","3","3","3","4","4","00:00","00:00","08:00","02:00","00:00","00:00","00:00","02:00","03:00","00:00","00:00","00:00","08:00","02:00","00:00","03:30","02:00","03:00","5","4","3","0","2","13","1","1","3","3","3","1","3","3","3","1","2","1","1","1","1","3","2","3","$30 tonight","$40 tonight","$67 tonight","$34 tonight","$15 tonight","$32 tonight","$83 tonight","$21 tonight","$48 tonight","$40 tonight","$25 tonight","$65 tonight","$24 tonight","$30 tonight","$53 tonight","$47 tonight","$40 tonight","$50 tonight","$45 tonight","$27 tonight","$16 tonight","0.633333328","stim/H080.png","76","76","0.633333328","3","1","2","2","1","3","0","1","3","2","3","2","3","4","1","2","5","5","5","5","5","5","5","3","1","4","4","4","0","2","2","2","2","2","1","2","0","0","3","2","0","1","2","2","2","0","0","agree","90","","","","","","","","<div style=""font-size:60px;"">?</div>","65","22","1","0.5"
"image-keyboard-response","85","490611","0.0-22.0-0.22","oncfgqwzj2g7shh","1","5f3430f7b2ea6115cb8564bb","23","195","6.0","Male","Asian ","No   ","Undergraduate degree ","Yes, Undergraduate studies ","N/A","N/A","N/A","3","3","3","4","4","00:00","00:00","08:00","02:00","00:00","00:00","00:00","02:00","03:00","00:00","00:00","00:00","08:00","02:00","00:00","03:30","02:00","03:00","5","4","3","0","2","13","1","1","3","3","3","1","3","3","3","1","2","1","1","1","1","3","2","3","$30 tonight","$40 tonight","$67 tonight","$34 tonight","$15 tonight","$32 tonight","$83 tonight","$21 tonight","$48 tonight","$40 tonight","$25 tonight","$65 tonight","$24 tonight","$30 tonight","$53 tonight","$47 tonight","$40 tonight","$50 tonight","$45 tonight","$27 tonight","$16 tonight","0.633333328","stim/H080.png","76","76","0.633333328","3","1","2","2","1","3","0","1","3","2","3","2","3","4","1","2","5","5","5","5","5","5","5","3","1","4","4","4","0","2","2","2","2","2","1","2","0","0","3","2","0","1","2","2","2","0","0","agree","null","","","","","","","","stim/T080.png","null","","",""
"html-keyboard-response","86","490721","0.0-22.0-1.22","oncfgqwzj2g7shh","1","5f3430f7b2ea6115cb8564bb","23","195","6.0","Male","Asian ","No   ","Undergraduate degree ","Yes, Undergraduate studies ","N/A","N/A","N/A","3","3","3","4","4","00:00","00:00","08:00","02:00","00:00","00:00","00:00","02:00","03:00","00:00","00:00","00:00","08:00","02:00","00:00","03:30","02:00","03:00","5","4","3","0","2","13","1","1","3","3","3","1","3","3","3","1","2","1","1","1","1","3","2","3","$30 tonight","$40 tonight","$67 tonight","$34 tonight","$15 tonight","$32 tonight","$83 tonight","$21 tonight","$48 tonight","$40 tonight","$25 tonight","$65 tonight","$24 tonight","$30 tonight","$53 tonight","$47 tonight","$40 tonight","$50 tonight","$45 tonight","$27 tonight","$16 tonight","0.633333328","stim/H080.png","76","76","0.633333328","3","1","2","2","1","3","0","1","3","2","3","2","3","4","1","2","5","5","5","5","5","5","5","3","1","4","4","4","0","2","2","2","2","2","1","2","0","0","3","2","0","1","2","2","2","0","0","agree","110","","","","","","","","<div style=""font-size:60px;"">?</div>","65","23","1","0.5"
"image-keyboard-response","87","491724","0.0-22.0-0.23","oncfgqwzj2g7shh","1","5f3430f7b2ea6115cb8564bb","23","195","6.0","Male","Asian ","No   ","Undergraduate degree ","Yes, Undergraduate studies ","N/A","N/A","N/A","3","3","3","4","4","00:00","00:00","08:00","02:00","00:00","00:00","00:00","02:00","03:00","00:00","00:00","00:00","08:00","02:00","00:00","03:30","02:00","03:00","5","4","3","0","2","13","1","1","3","3","3","1","3","3","3","1","2","1","1","1","1","3","2","3","$30 tonight","$40 tonight","$67 tonight","$34 tonight","$15 tonight","$32 tonight","$83 tonight","$21 tonight","$48 tonight","$40 tonight","$25 tonight","$65 tonight","$24 tonight","$30 tonight","$53 tonight","$47 tonight","$40 tonight","$50 tonight","$45 tonight","$27 tonight","$16 tonight","0.633333328","stim/H080.png","76","76","0.633333328","3","1","2","2","1","3","0","1","3","2","3","2","3","4","1","2","5","5","5","5","5","5","5","3","1","4","4","4","0","2","2","2","2","2","1","2","0","0","3","2","0","1","2","2","2","0","0","agree","null","","","","","","","","stim/T110.png","null","","",""
