"trial_type","trial_index","time_elapsed","internal_node_id","subject","condition","prolID","age","weight","height","gender","ethnicity","mental_check","educ_l","educ_c","mental","mentdrug","mentpos","soc_1","soc_2","soc_3","soc_4","soc_5","TV01","DEV01","LAP01","PHO01","TAB01","TV02","DEV02","LAP02","PHO02","TAB02","TV03","DEV03","LAP03","PHO03","TAB03","WEDSEC","WNISEC","WKNSEC","sesparent","sesstudent","sesladder","sescurrency","educ_hs","educ_ce","nfc_01","nfc_02","nfc_03","nfc_04","nfc_05","nfc_06","nfc_07","nfc_08","nfc_09","nfc_10","nfc_11","nfc_12","nfc_13","nfc_14","nfc_15","nfc_16","nfc_17","nfc_18","kirby01","kirby02","kirby03","kirby04","kirby05","kirby06","kirby07","kirby08","kirby09","kirby10","kirby11","kirby12","kirby13","kirby14","kirby15","kirby16","kirby17","kirby18","kirby19","kirby20","kirby21","s1self","chosenbody","s1selfjudge","s2selfjudge","s2self","EDEQ_1","EDEQ_2","EDEQ_3","EDEQ_4","EDEQ_5","EDEQ_6","EDEQ_7","EDEQ_8","EDEQ_9","EDEQ_10","EDEQ_11","catch1","EDEQ_12","BSQR_1","BSQR_2","BSQR_3","BSQR_4","BSQR_5","BSQR_6","BSQR_7","BSQR_8","BSQR_9","BSQR_10","BSQR_11","catch2","BSQR_12","BSQR_13","BSQR_14","BSI_1","BSI_2","BSI_3","BSI_4","BSI_5","BSI_6","BSI_7","BSI_8","catch3","BSI_9","BSI_10","BSI_11","BSI_12","BSI_13","BSI_14","BSI_15","BSI_16","BSI_17","BSI_18","debrief","rt","url","success","view_history","responses","question_order","final_value","start_value","stimulus","key_press","trial","block","freq"
"pavlovia","0","6","0.0-0.0","4b42tq65fqtq50h","1","616b2558cedf0fecc3464156","21","195","5.11.","Male","Black or African American ","No   ","High School ","Yes, but not at a university ","N/A","N/A","N/A","3","2","3","1","0","0:30","0:00","7:00","3:30","0:00","00:00","00:00","07:00","03:00","00:00","08:30","00:00","06:00","3:30","00:00","00:30","00:30","00:00","4","1","4","0","4","3","3","3","0","1","2","3","2","1","1","3","4","0","2","3","2","1","1","4","$85 in 14 days","$40 tonight","$67 tonight","$34 tonight","$15 tonight","$32 tonight","$83 tonight","$21 tonight","$48 tonight","$40 tonight","$25 tonight","$65 tonight","$55 in 10 days","$30 tonight","$53 tonight","$47 tonight","$70 in 20 days","$50 tonight","$70 in 35 days","$27 tonight","$16 tonight","0.533333312","stim/H020.png","65","65","0.566666644","1","1","2","1","1","2","0","0","1","2","3","2","2","3","4","3","4","2","3","4","2","3","3","2","1","2","2","4","0","1","0","2","3","1","1","1","0","2","2","0","0","1","2","2","1","0","1","agree","","","","","","","","","","","","",""
"external-html","1","697221","0.0-1.0","4b42tq65fqtq50h","1","616b2558cedf0fecc3464156","21","195","5.11.","Male","Black or African American ","No   ","High School ","Yes, but not at a university ","N/A","N/A","N/A","3","2","3","1","0","0:30","0:00","7:00","3:30","0:00","00:00","00:00","07:00","03:00","00:00","08:30","00:00","06:00","3:30","00:00","00:30","00:30","00:00","4","1","4","0","4","3","3","3","0","1","2","3","2","1","1","3","4","0","2","3","2","1","1","4","$85 in 14 days","$40 tonight","$67 tonight","$34 tonight","$15 tonight","$32 tonight","$83 tonight","$21 tonight","$48 tonight","$40 tonight","$25 tonight","$65 tonight","$55 in 10 days","$30 tonight","$53 tonight","$47 tonight","$70 in 20 days","$50 tonight","$70 in 35 days","$27 tonight","$16 tonight","0.533333312","stim/H020.png","65","65","0.566666644","1","1","2","1","1","2","0","0","1","2","3","2","2","3","4","3","4","2","3","4","2","3","3","2","1","2","2","4","0","1","0","2","3","1","1","1","0","2","2","0","0","1","2","2","1","0","1","agree","697069.9000000954","sub/html/consent.html","","","","","","","","","","",""
"fullscreen","2","700794","0.0-2.0","4b42tq65fqtq50h","1","616b2558cedf0fecc3464156","21","195","5.11.","Male","Black or African American ","No   ","High School ","Yes, but not at a university ","N/A","N/A","N/A","3","2","3","1","0","0:30","0:00","7:00","3:30","0:00","00:00","00:00","07:00","03:00","00:00","08:30","00:00","06:00","3:30","00:00","00:30","00:30","00:00","4","1","4","0","4","3","3","3","0","1","2","3","2","1","1","3","4","0","2","3","2","1","1","4","$85 in 14 days","$40 tonight","$67 tonight","$34 tonight","$15 tonight","$32 tonight","$83 tonight","$21 tonight","$48 tonight","$40 tonight","$25 tonight","$65 tonight","$55 in 10 days","$30 tonight","$53 tonight","$47 tonight","$70 in 20 days","$50 tonight","$70 in 35 days","$27 tonight","$16 tonight","0.533333312","stim/H020.png","65","65","0.566666644","1","1","2","1","1","2","0","0","1","2","3","2","2","3","4","3","4","2","3","4","2","3","3","2","1","2","2","4","0","1","0","2","3","1","1","1","0","2","2","0","0","1","2","2","1","0","1","agree","","","true","","","","","","","","","",""
"instructions","3","719878","0.0-3.0","4b42tq65fqtq50h","1","616b2558cedf0fecc3464156","21","195","5.11.","Male","Black or African American ","No   ","High School ","Yes, but not at a university ","N/A","N/A","N/A","3","2","3","1","0","0:30","0:00","7:00","3:30","0:00","00:00","00:00","07:00","03:00","00:00","08:30","00:00","06:00","3:30","00:00","00:30","00:30","00:00","4","1","4","0","4","3","3","3","0","1","2","3","2","1","1","3","4","0","2","3","2","1","1","4","$85 in 14 days","$40 tonight","$67 tonight","$34 tonight","$15 tonight","$32 tonight","$83 tonight","$21 tonight","$48 tonight","$40 tonight","$25 tonight","$65 tonight","$55 in 10 days","$30 tonight","$53 tonight","$47 tonight","$70 in 20 days","$50 tonight","$70 in 35 days","$27 tonight","$16 tonight","0.533333312","stim/H020.png","65","65","0.566666644","1","1","2","1","1","2","0","0","1","2","3","2","2","3","4","3","4","2","3","4","2","3","3","2","1","2","2","4","0","1","0","2","3","1","1","1","0","2","2","0","0","1","2","2","1","0","1","agree","19083","","","[{""page_index"":0,""viewing_time"":3642.2999999523163},{""page_index"":1,""viewing_time"":15440}]","","","","","","","","",""
"survey-text","4","763896","0.0-4.0","4b42tq65fqtq50h","1","616b2558cedf0fecc3464156","21","195","5.11.","Male","Black or African American ","No   ","High School ","Yes, but not at a university ","N/A","N/A","N/A","3","2","3","1","0","0:30","0:00","7:00","3:30","0:00","00:00","00:00","07:00","03:00","00:00","08:30","00:00","06:00","3:30","00:00","00:30","00:30","00:00","4","1","4","0","4","3","3","3","0","1","2","3","2","1","1","3","4","0","2","3","2","1","1","4","$85 in 14 days","$40 tonight","$67 tonight","$34 tonight","$15 tonight","$32 tonight","$83 tonight","$21 tonight","$48 tonight","$40 tonight","$25 tonight","$65 tonight","$55 in 10 days","$30 tonight","$53 tonight","$47 tonight","$70 in 20 days","$50 tonight","$70 in 35 days","$27 tonight","$16 tonight","0.533333312","stim/H020.png","65","65","0.566666644","1","1","2","1","1","2","0","0","1","2","3","2","2","3","4","3","4","2","3","4","2","3","3","2","1","2","2","4","0","1","0","2","3","1","1","1","0","2","2","0","0","1","2","2","1","0","1","agree","44011.200000047684","","","","{""prolID"":""616b2558cedf0fecc3464156"",""age"":""21"",""weight"":""195"",""height"":""5.11.""}","","","","","","","",""
"survey-multi-choice","5","809767","0.0-5.0","4b42tq65fqtq50h","1","616b2558cedf0fecc3464156","21","195","5.11.","Male","Black or African American ","No   ","High School ","Yes, but not at a university ","N/A","N/A","N/A","3","2","3","1","0","0:30","0:00","7:00","3:30","0:00","00:00","00:00","07:00","03:00","00:00","08:30","00:00","06:00","3:30","00:00","00:30","00:30","00:00","4","1","4","0","4","3","3","3","0","1","2","3","2","1","1","3","4","0","2","3","2","1","1","4","$85 in 14 days","$40 tonight","$67 tonight","$34 tonight","$15 tonight","$32 tonight","$83 tonight","$21 tonight","$48 tonight","$40 tonight","$25 tonight","$65 tonight","$55 in 10 days","$30 tonight","$53 tonight","$47 tonight","$70 in 20 days","$50 tonight","$70 in 35 days","$27 tonight","$16 tonight","0.533333312","stim/H020.png","65","65","0.566666644","1","1","2","1","1","2","0","0","1","2","3","2","2","3","4","3","4","2","3","4","2","3","3","2","1","2","2","4","0","1","0","2","3","1","1","1","0","2","2","0","0","1","2","2","1","0","1","agree","45867","","","","{""gender"":""Male"",""ethnicity"":""Black or African American "",""mental_check"":""No   "",""educ_l"":""High School "",""educ_c"":""Yes, but not at a university ""}","[0,1,2,3,4]","","","","","","",""
"survey-text","6","903021","0.0-6.0","4b42tq65fqtq50h","1","616b2558cedf0fecc3464156","21","195","5.11.","Male","Black or African American ","No   ","High School ","Yes, but not at a university ","N/A","N/A","N/A","3","2","3","1","0","0:30","0:00","7:00","3:30","0:00","00:00","00:00","07:00","03:00","00:00","08:30","00:00","06:00","3:30","00:00","00:30","00:30","00:00","4","1","4","0","4","3","3","3","0","1","2","3","2","1","1","3","4","0","2","3","2","1","1","4","$85 in 14 days","$40 tonight","$67 tonight","$34 tonight","$15 tonight","$32 tonight","$83 tonight","$21 tonight","$48 tonight","$40 tonight","$25 tonight","$65 tonight","$55 in 10 days","$30 tonight","$53 tonight","$47 tonight","$70 in 20 days","$50 tonight","$70 in 35 days","$27 tonight","$16 tonight","0.533333312","stim/H020.png","65","65","0.566666644","1","1","2","1","1","2","0","0","1","2","3","2","2","3","4","3","4","2","3","4","2","3","3","2","1","2","2","4","0","1","0","2","3","1","1","1","0","2","2","0","0","1","2","2","1","0","1","agree","93247.90000009537","","","","{""mental"":""N/A"",""mentdrug"":""N/A"",""mentpos"":""N/A""}","","","","","","","",""
"survey-likert","7","1020318","0.0-7.0","4b42tq65fqtq50h","1","616b2558cedf0fecc3464156","21","195","5.11.","Male","Black or African American ","No   ","High School ","Yes, but not at a university ","N/A","N/A","N/A","3","2","3","1","0","0:30","0:00","7:00","3:30","0:00","00:00","00:00","07:00","03:00","00:00","08:30","00:00","06:00","3:30","00:00","00:30","00:30","00:00","4","1","4","0","4","3","3","3","0","1","2","3","2","1","1","3","4","0","2","3","2","1","1","4","$85 in 14 days","$40 tonight","$67 tonight","$34 tonight","$15 tonight","$32 tonight","$83 tonight","$21 tonight","$48 tonight","$40 tonight","$25 tonight","$65 tonight","$55 in 10 days","$30 tonight","$53 tonight","$47 tonight","$70 in 20 days","$50 tonight","$70 in 35 days","$27 tonight","$16 tonight","0.533333312","stim/H020.png","65","65","0.566666644","1","1","2","1","1","2","0","0","1","2","3","2","2","3","4","3","4","2","3","4","2","3","3","2","1","2","2","4","0","1","0","2","3","1","1","1","0","2","2","0","0","1","2","2","1","0","1","agree","117293.90000009537","","","","{""soc_1"":3,""soc_2"":2,""soc_3"":3,""soc_4"":1,""soc_5"":0}","[0,1,2,3,4]","","","","","","",""
"survey-text","8","1420893","0.0-8.0","4b42tq65fqtq50h","1","616b2558cedf0fecc3464156","21","195","5.11.","Male","Black or African American ","No   ","High School ","Yes, but not at a university ","N/A","N/A","N/A","3","2","3","1","0","0:30","0:00","7:00","3:30","0:00","00:00","00:00","07:00","03:00","00:00","08:30","00:00","06:00","3:30","00:00","00:30","00:30","00:00","4","1","4","0","4","3","3","3","0","1","2","3","2","1","1","3","4","0","2","3","2","1","1","4","$85 in 14 days","$40 tonight","$67 tonight","$34 tonight","$15 tonight","$32 tonight","$83 tonight","$21 tonight","$48 tonight","$40 tonight","$25 tonight","$65 tonight","$55 in 10 days","$30 tonight","$53 tonight","$47 tonight","$70 in 20 days","$50 tonight","$70 in 35 days","$27 tonight","$16 tonight","0.533333312","stim/H020.png","65","65","0.566666644","1","1","2","1","1","2","0","0","1","2","3","2","2","3","4","3","4","2","3","4","2","3","3","2","1","2","2","4","0","1","0","2","3","1","1","1","0","2","2","0","0","1","2","2","1","0","1","agree","400569.60000014305","","","","{""tv_01"":""0:30"",""dev_01"":""0:00"",""lap_01"":""7:00"",""pho_01"":""3:30"",""tab_01"":""0:00""}","","","","","","","",""
"survey-text","9","1511678","0.0-9.0","4b42tq65fqtq50h","1","616b2558cedf0fecc3464156","21","195","5.11.","Male","Black or African American ","No   ","High School ","Yes, but not at a university ","N/A","N/A","N/A","3","2","3","1","0","0:30","0:00","7:00","3:30","0:00","00:00","00:00","07:00","03:00","00:00","08:30","00:00","06:00","3:30","00:00","00:30","00:30","00:00","4","1","4","0","4","3","3","3","0","1","2","3","2","1","1","3","4","0","2","3","2","1","1","4","$85 in 14 days","$40 tonight","$67 tonight","$34 tonight","$15 tonight","$32 tonight","$83 tonight","$21 tonight","$48 tonight","$40 tonight","$25 tonight","$65 tonight","$55 in 10 days","$30 tonight","$53 tonight","$47 tonight","$70 in 20 days","$50 tonight","$70 in 35 days","$27 tonight","$16 tonight","0.533333312","stim/H020.png","65","65","0.566666644","1","1","2","1","1","2","0","0","1","2","3","2","2","3","4","3","4","2","3","4","2","3","3","2","1","2","2","4","0","1","0","2","3","1","1","1","0","2","2","0","0","1","2","2","1","0","1","agree","90780.20000004768","","","","{""tv_02"":""00:00"",""dev_02"":""00:00"",""lap_02"":""07:00"",""pho_02"":""03:00"",""tab_02"":""00:00""}","","","","","","","",""
"survey-text","10","1658678","0.0-10.0","4b42tq65fqtq50h","1","616b2558cedf0fecc3464156","21","195","5.11.","Male","Black or African American ","No   ","High School ","Yes, but not at a university ","N/A","N/A","N/A","3","2","3","1","0","0:30","0:00","7:00","3:30","0:00","00:00","00:00","07:00","03:00","00:00","08:30","00:00","06:00","3:30","00:00","00:30","00:30","00:00","4","1","4","0","4","3","3","3","0","1","2","3","2","1","1","3","4","0","2","3","2","1","1","4","$85 in 14 days","$40 tonight","$67 tonight","$34 tonight","$15 tonight","$32 tonight","$83 tonight","$21 tonight","$48 tonight","$40 tonight","$25 tonight","$65 tonight","$55 in 10 days","$30 tonight","$53 tonight","$47 tonight","$70 in 20 days","$50 tonight","$70 in 35 days","$27 tonight","$16 tonight","0.533333312","stim/H020.png","65","65","0.566666644","1","1","2","1","1","2","0","0","1","2","3","2","2","3","4","3","4","2","3","4","2","3","3","2","1","2","2","4","0","1","0","2","3","1","1","1","0","2","2","0","0","1","2","2","1","0","1","agree","146994.70000004768","","","","{""tv_03"":""08:30"",""dev_03"":""00:00"",""lap_03"":""06:00"",""pho_03"":""3:30"",""tab_03"":""00:00""}","","","","","","","",""
"survey-text","11","1841197","0.0-11.0","4b42tq65fqtq50h","1","616b2558cedf0fecc3464156","21","195","5.11.","Male","Black or African American ","No   ","High School ","Yes, but not at a university ","N/A","N/A","N/A","3","2","3","1","0","0:30","0:00","7:00","3:30","0:00","00:00","00:00","07:00","03:00","00:00","08:30","00:00","06:00","3:30","00:00","00:30","00:30","00:00","4","1","4","0","4","3","3","3","0","1","2","3","2","1","1","3","4","0","2","3","2","1","1","4","$85 in 14 days","$40 tonight","$67 tonight","$34 tonight","$15 tonight","$32 tonight","$83 tonight","$21 tonight","$48 tonight","$40 tonight","$25 tonight","$65 tonight","$55 in 10 days","$30 tonight","$53 tonight","$47 tonight","$70 in 20 days","$50 tonight","$70 in 35 days","$27 tonight","$16 tonight","0.533333312","stim/H020.png","65","65","0.566666644","1","1","2","1","1","2","0","0","1","2","3","2","2","3","4","3","4","2","3","4","2","3","3","2","1","2","2","4","0","1","0","2","3","1","1","1","0","2","2","0","0","1","2","2","1","0","1","agree","182514.29999995232","","","","{""Wedsec"":""00:30"",""Wnisec"":""00:30"",""Wknsec"":""00:00""}","","","","","","","",""
"survey-likert","12","1940910","0.0-12.0","4b42tq65fqtq50h","1","616b2558cedf0fecc3464156","21","195","5.11.","Male","Black or African American ","No   ","High School ","Yes, but not at a university ","N/A","N/A","N/A","3","2","3","1","0","0:30","0:00","7:00","3:30","0:00","00:00","00:00","07:00","03:00","00:00","08:30","00:00","06:00","3:30","00:00","00:30","00:30","00:00","4","1","4","0","4","3","3","3","0","1","2","3","2","1","1","3","4","0","2","3","2","1","1","4","$85 in 14 days","$40 tonight","$67 tonight","$34 tonight","$15 tonight","$32 tonight","$83 tonight","$21 tonight","$48 tonight","$40 tonight","$25 tonight","$65 tonight","$55 in 10 days","$30 tonight","$53 tonight","$47 tonight","$70 in 20 days","$50 tonight","$70 in 35 days","$27 tonight","$16 tonight","0.533333312","stim/H020.png","65","65","0.566666644","1","1","2","1","1","2","0","0","1","2","3","2","2","3","4","3","4","2","3","4","2","3","3","2","1","2","2","4","0","1","0","2","3","1","1","1","0","2","2","0","0","1","2","2","1","0","1","agree","99711","","","","{""sesparent"":4,""sesstudent"":1,""sesladder"":4,""sescurrency"":0}","[0,1,2,3]","","","","","","",""
"survey-likert","13","2164542","0.0-13.0","4b42tq65fqtq50h","1","616b2558cedf0fecc3464156","21","195","5.11.","Male","Black or African American ","No   ","High School ","Yes, but not at a university ","N/A","N/A","N/A","3","2","3","1","0","0:30","0:00","7:00","3:30","0:00","00:00","00:00","07:00","03:00","00:00","08:30","00:00","06:00","3:30","00:00","00:30","00:30","00:00","4","1","4","0","4","3","3","3","0","1","2","3","2","1","1","3","4","0","2","3","2","1","1","4","$85 in 14 days","$40 tonight","$67 tonight","$34 tonight","$15 tonight","$32 tonight","$83 tonight","$21 tonight","$48 tonight","$40 tonight","$25 tonight","$65 tonight","$55 in 10 days","$30 tonight","$53 tonight","$47 tonight","$70 in 20 days","$50 tonight","$70 in 35 days","$27 tonight","$16 tonight","0.533333312","stim/H020.png","65","65","0.566666644","1","1","2","1","1","2","0","0","1","2","3","2","2","3","4","3","4","2","3","4","2","3","3","2","1","2","2","4","0","1","0","2","3","1","1","1","0","2","2","0","0","1","2","2","1","0","1","agree","223629.79999995232","","","","{""educ_hs"":4,""educ_ce"":3}","[0,1]","","","","","","",""
"survey-likert","14","2579918","0.0-14.0","4b42tq65fqtq50h","1","616b2558cedf0fecc3464156","21","195","5.11.","Male","Black or African American ","No   ","High School ","Yes, but not at a university ","N/A","N/A","N/A","3","2","3","1","0","0:30","0:00","7:00","3:30","0:00","00:00","00:00","07:00","03:00","00:00","08:30","00:00","06:00","3:30","00:00","00:30","00:30","00:00","4","1","4","0","4","3","3","3","0","1","2","3","2","1","1","3","4","0","2","3","2","1","1","4","$85 in 14 days","$40 tonight","$67 tonight","$34 tonight","$15 tonight","$32 tonight","$83 tonight","$21 tonight","$48 tonight","$40 tonight","$25 tonight","$65 tonight","$55 in 10 days","$30 tonight","$53 tonight","$47 tonight","$70 in 20 days","$50 tonight","$70 in 35 days","$27 tonight","$16 tonight","0.533333312","stim/H020.png","65","65","0.566666644","1","1","2","1","1","2","0","0","1","2","3","2","2","3","4","3","4","2","3","4","2","3","3","2","1","2","2","4","0","1","0","2","3","1","1","1","0","2","2","0","0","1","2","2","1","0","1","agree","415371.59999990463","","","","{""nfc_01"":3,""nfc_02"":3,""nfc_03"":0,""nfc_04"":1,""nfc_05"":2,""nfc_06"":3,""nfc_07"":2,""nfc_08"":1,""nfc_09"":1,""nfc_10"":3,""nfc_11"":4,""nfc_12"":0,""nfc_13"":2,""nfc_14"":3,""nfc_15"":2,""nfc_16"":1,""nfc_17"":1,""nfc_18"":4}","[0,1,2,3,4,5,6,7,8,9,10,11,12,13,14,15,16,17]","","","","","","",""
"survey-multi-choice","15","2723160","0.0-15.0","4b42tq65fqtq50h","1","616b2558cedf0fecc3464156","21","195","5.11.","Male","Black or African American ","No   ","High School ","Yes, but not at a university ","N/A","N/A","N/A","3","2","3","1","0","0:30","0:00","7:00","3:30","0:00","00:00","00:00","07:00","03:00","00:00","08:30","00:00","06:00","3:30","00:00","00:30","00:30","00:00","4","1","4","0","4","3","3","3","0","1","2","3","2","1","1","3","4","0","2","3","2","1","1","4","$85 in 14 days","$40 tonight","$67 tonight","$34 tonight","$15 tonight","$32 tonight","$83 tonight","$21 tonight","$48 tonight","$40 tonight","$25 tonight","$65 tonight","$55 in 10 days","$30 tonight","$53 tonight","$47 tonight","$70 in 20 days","$50 tonight","$70 in 35 days","$27 tonight","$16 tonight","0.533333312","stim/H020.png","65","65","0.566666644","1","1","2","1","1","2","0","0","1","2","3","2","2","3","4","3","4","2","3","4","2","3","3","2","1","2","2","4","0","1","0","2","3","1","1","1","0","2","2","0","0","1","2","2","1","0","1","agree","143236.40000009537","","","","{""kirby01"":""$85 in 14 days"",""kirby02"":""$40 tonight"",""kirby03"":""$67 tonight"",""kirby04"":""$34 tonight"",""kirby05"":""$15 tonight"",""kirby06"":""$32 tonight"",""kirby07"":""$83 tonight"",""kirby08"":""$21 tonight"",""kirby09"":""$48 tonight"",""kirby10"":""$40 tonight"",""kirby11"":""$25 tonight"",""kirby12"":""$65 tonight"",""kirby13"":""$55 in 10 days"",""kirby14"":""$30 tonight"",""kirby15"":""$53 tonight"",""kirby16"":""$47 tonight"",""kirby17"":""$70 in 20 days"",""kirby18"":""$50 tonight"",""kirby19"":""$70 in 35 days"",""kirby20"":""$27 tonight"",""kirby21"":""$16 tonight""}","[0,1,2,3,4,5,6,7,8,9,10,11,12,13,14,15,16,17,18,19,20]","","","","","","",""
"reconstruction","16","2776543","0.0-16.0","4b42tq65fqtq50h","1","616b2558cedf0fecc3464156","21","195","5.11.","Male","Black or African American ","No   ","High School ","Yes, but not at a university ","N/A","N/A","N/A","3","2","3","1","0","0:30","0:00","7:00","3:30","0:00","00:00","00:00","07:00","03:00","00:00","08:30","00:00","06:00","3:30","00:00","00:30","00:30","00:00","4","1","4","0","4","3","3","3","0","1","2","3","2","1","1","3","4","0","2","3","2","1","1","4","$85 in 14 days","$40 tonight","$67 tonight","$34 tonight","$15 tonight","$32 tonight","$83 tonight","$21 tonight","$48 tonight","$40 tonight","$25 tonight","$65 tonight","$55 in 10 days","$30 tonight","$53 tonight","$47 tonight","$70 in 20 days","$50 tonight","$70 in 35 days","$27 tonight","$16 tonight","0.533333312","stim/H020.png","65","65","0.566666644","1","1","2","1","1","2","0","0","1","2","3","2","2","3","4","3","4","2","3","4","2","3","3","2","1","2","2","4","0","1","0","2","3","1","1","1","0","2","2","0","0","1","2","2","1","0","1","agree","53376.09999990463","","","","","","0.533333312","0.5","","","","",""
"image-keyboard-response","17","2786363","0.0-17.0","4b42tq65fqtq50h","1","616b2558cedf0fecc3464156","21","195","5.11.","Male","Black or African American ","No   ","High School ","Yes, but not at a university ","N/A","N/A","N/A","3","2","3","1","0","0:30","0:00","7:00","3:30","0:00","00:00","00:00","07:00","03:00","00:00","08:30","00:00","06:00","3:30","00:00","00:30","00:30","00:00","4","1","4","0","4","3","3","3","0","1","2","3","2","1","1","3","4","0","2","3","2","1","1","4","$85 in 14 days","$40 tonight","$67 tonight","$34 tonight","$15 tonight","$32 tonight","$83 tonight","$21 tonight","$48 tonight","$40 tonight","$25 tonight","$65 tonight","$55 in 10 days","$30 tonight","$53 tonight","$47 tonight","$70 in 20 days","$50 tonight","$70 in 35 days","$27 tonight","$16 tonight","0.533333312","stim/H020.png","65","65","0.566666644","1","1","2","1","1","2","0","0","1","2","3","2","2","3","4","3","4","2","3","4","2","3","3","2","1","2","2","4","0","1","0","2","3","1","1","1","0","2","2","0","0","1","2","2","1","0","1","agree","9817.400000095367","","","","","","","","stim/H020.png","65","","",""
"instructions","18","2869549","0.0-18.0","4b42tq65fqtq50h","1","616b2558cedf0fecc3464156","21","195","5.11.","Male","Black or African American ","No   ","High School ","Yes, but not at a university ","N/A","N/A","N/A","3","2","3","1","0","0:30","0:00","7:00","3:30","0:00","00:00","00:00","07:00","03:00","00:00","08:30","00:00","06:00","3:30","00:00","00:30","00:30","00:00","4","1","4","0","4","3","3","3","0","1","2","3","2","1","1","3","4","0","2","3","2","1","1","4","$85 in 14 days","$40 tonight","$67 tonight","$34 tonight","$15 tonight","$32 tonight","$83 tonight","$21 tonight","$48 tonight","$40 tonight","$25 tonight","$65 tonight","$55 in 10 days","$30 tonight","$53 tonight","$47 tonight","$70 in 20 days","$50 tonight","$70 in 35 days","$27 tonight","$16 tonight","0.533333312","stim/H020.png","65","65","0.566666644","1","1","2","1","1","2","0","0","1","2","3","2","2","3","4","3","4","2","3","4","2","3","3","2","1","2","2","4","0","1","0","2","3","1","1","1","0","2","2","0","0","1","2","2","1","0","1","agree","83185.20000004768","","","[{""page_index"":0,""viewing_time"":6568.799999952316},{""page_index"":1,""viewing_time"":8695.799999952316},{""page_index"":2,""viewing_time"":27049.10000014305},{""page_index"":3,""viewing_time"":6479.099999904633},{""page_index"":4,""viewing_time"":7927.799999952316},{""page_index"":5,""viewing_time"":20632.10000014305},{""page_index"":6,""viewing_time"":5832.099999904633}]","","","","","","","","",""
"image-keyboard-response","19","2870060","0.0-19.0-0.0","4b42tq65fqtq50h","1","616b2558cedf0fecc3464156","21","195","5.11.","Male","Black or African American ","No   ","High School ","Yes, but not at a university ","N/A","N/A","N/A","3","2","3","1","0","0:30","0:00","7:00","3:30","0:00","00:00","00:00","07:00","03:00","00:00","08:30","00:00","06:00","3:30","00:00","00:30","00:30","00:00","4","1","4","0","4","3","3","3","0","1","2","3","2","1","1","3","4","0","2","3","2","1","1","4","$85 in 14 days","$40 tonight","$67 tonight","$34 tonight","$15 tonight","$32 tonight","$83 tonight","$21 tonight","$48 tonight","$40 tonight","$25 tonight","$65 tonight","$55 in 10 days","$30 tonight","$53 tonight","$47 tonight","$70 in 20 days","$50 tonight","$70 in 35 days","$27 tonight","$16 tonight","0.533333312","stim/H020.png","65","65","0.566666644","1","1","2","1","1","2","0","0","1","2","3","2","2","3","4","3","4","2","3","4","2","3","3","2","1","2","2","4","0","1","0","2","3","1","1","1","0","2","2","0","0","1","2","2","1","0","1","agree","null","","","","","","","","stim/H180.png","null","","",""
"html-keyboard-response","20","2871847","0.0-19.0-1.0","4b42tq65fqtq50h","1","616b2558cedf0fecc3464156","21","195","5.11.","Male","Black or African American ","No   ","High School ","Yes, but not at a university ","N/A","N/A","N/A","3","2","3","1","0","0:30","0:00","7:00","3:30","0:00","00:00","00:00","07:00","03:00","00:00","08:30","00:00","06:00","3:30","00:00","00:30","00:30","00:00","4","1","4","0","4","3","3","3","0","1","2","3","2","1","1","3","4","0","2","3","2","1","1","4","$85 in 14 days","$40 tonight","$67 tonight","$34 tonight","$15 tonight","$32 tonight","$83 tonight","$21 tonight","$48 tonight","$40 tonight","$25 tonight","$65 tonight","$55 in 10 days","$30 tonight","$53 tonight","$47 tonight","$70 in 20 days","$50 tonight","$70 in 35 days","$27 tonight","$16 tonight","0.533333312","stim/H020.png","65","65","0.566666644","1","1","2","1","1","2","0","0","1","2","3","2","2","3","4","3","4","2","3","4","2","3","3","2","1","2","2","4","0","1","0","2","3","1","1","1","0","2","2","0","0","1","2","2","1","0","1","agree","1786.2999999523163","","","","","","","","<div style=""font-size:60px;"">?</div>","76","1","Practice","0.5"
"image-keyboard-response","21","2872872","0.0-19.0-0.1","4b42tq65fqtq50h","1","616b2558cedf0fecc3464156","21","195","5.11.","Male","Black or African American ","No   ","High School ","Yes, but not at a university ","N/A","N/A","N/A","3","2","3","1","0","0:30","0:00","7:00","3:30","0:00","00:00","00:00","07:00","03:00","00:00","08:30","00:00","06:00","3:30","00:00","00:30","00:30","00:00","4","1","4","0","4","3","3","3","0","1","2","3","2","1","1","3","4","0","2","3","2","1","1","4","$85 in 14 days","$40 tonight","$67 tonight","$34 tonight","$15 tonight","$32 tonight","$83 tonight","$21 tonight","$48 tonight","$40 tonight","$25 tonight","$65 tonight","$55 in 10 days","$30 tonight","$53 tonight","$47 tonight","$70 in 20 days","$50 tonight","$70 in 35 days","$27 tonight","$16 tonight","0.533333312","stim/H020.png","65","65","0.566666644","1","1","2","1","1","2","0","0","1","2","3","2","2","3","4","3","4","2","3","4","2","3","3","2","1","2","2","4","0","1","0","2","3","1","1","1","0","2","2","0","0","1","2","2","1","0","1","agree","null","","","","","","","","stim/T030.png","null","","",""
"html-keyboard-response","22","2874484","0.0-19.0-1.1","4b42tq65fqtq50h","1","616b2558cedf0fecc3464156","21","195","5.11.","Male","Black or African American ","No   ","High School ","Yes, but not at a university ","N/A","N/A","N/A","3","2","3","1","0","0:30","0:00","7:00","3:30","0:00","00:00","00:00","07:00","03:00","00:00","08:30","00:00","06:00","3:30","00:00","00:30","00:30","00:00","4","1","4","0","4","3","3","3","0","1","2","3","2","1","1","3","4","0","2","3","2","1","1","4","$85 in 14 days","$40 tonight","$67 tonight","$34 tonight","$15 tonight","$32 tonight","$83 tonight","$21 tonight","$48 tonight","$40 tonight","$25 tonight","$65 tonight","$55 in 10 days","$30 tonight","$53 tonight","$47 tonight","$70 in 20 days","$50 tonight","$70 in 35 days","$27 tonight","$16 tonight","0.533333312","stim/H020.png","65","65","0.566666644","1","1","2","1","1","2","0","0","1","2","3","2","2","3","4","3","4","2","3","4","2","3","3","2","1","2","2","4","0","1","0","2","3","1","1","1","0","2","2","0","0","1","2","2","1","0","1","agree","1610.8999998569489","","","","","","","","<div style=""font-size:60px;"">?</div>","65","2","Practice","0.5"
"image-keyboard-response","23","2875501","0.0-19.0-0.2","4b42tq65fqtq50h","1","616b2558cedf0fecc3464156","21","195","5.11.","Male","Black or African American ","No   ","High School ","Yes, but not at a university ","N/A","N/A","N/A","3","2","3","1","0","0:30","0:00","7:00","3:30","0:00","00:00","00:00","07:00","03:00","00:00","08:30","00:00","06:00","3:30","00:00","00:30","00:30","00:00","4","1","4","0","4","3","3","3","0","1","2","3","2","1","1","3","4","0","2","3","2","1","1","4","$85 in 14 days","$40 tonight","$67 tonight","$34 tonight","$15 tonight","$32 tonight","$83 tonight","$21 tonight","$48 tonight","$40 tonight","$25 tonight","$65 tonight","$55 in 10 days","$30 tonight","$53 tonight","$47 tonight","$70 in 20 days","$50 tonight","$70 in 35 days","$27 tonight","$16 tonight","0.533333312","stim/H020.png","65","65","0.566666644","1","1","2","1","1","2","0","0","1","2","3","2","2","3","4","3","4","2","3","4","2","3","3","2","1","2","2","4","0","1","0","2","3","1","1","1","0","2","2","0","0","1","2","2","1","0","1","agree","null","","","","","","","","stim/T100.png","null","","",""
"html-keyboard-response","24","2876150","0.0-19.0-1.2","4b42tq65fqtq50h","1","616b2558cedf0fecc3464156","21","195","5.11.","Male","Black or African American ","No   ","High School ","Yes, but not at a university ","N/A","N/A","N/A","3","2","3","1","0","0:30","0:00","7:00","3:30","0:00","00:00","00:00","07:00","03:00","00:00","08:30","00:00","06:00","3:30","00:00","00:30","00:30","00:00","4","1","4","0","4","3","3","3","0","1","2","3","2","1","1","3","4","0","2","3","2","1","1","4","$85 in 14 days","$40 tonight","$67 tonight","$34 tonight","$15 tonight","$32 tonight","$83 tonight","$21 tonight","$48 tonight","$40 tonight","$25 tonight","$65 tonight","$55 in 10 days","$30 tonight","$53 tonight","$47 tonight","$70 in 20 days","$50 tonight","$70 in 35 days","$27 tonight","$16 tonight","0.533333312","stim/H020.png","65","65","0.566666644","1","1","2","1","1","2","0","0","1","2","3","2","2","3","4","3","4","2","3","4","2","3","3","2","1","2","2","4","0","1","0","2","3","1","1","1","0","2","2","0","0","1","2","2","1","0","1","agree","649.2999999523163","","","","","","","","<div style=""font-size:60px;"">?</div>","65","3","Practice","0.5"
"image-keyboard-response","25","2877168","0.0-19.0-0.3","4b42tq65fqtq50h","1","616b2558cedf0fecc3464156","21","195","5.11.","Male","Black or African American ","No   ","High School ","Yes, but not at a university ","N/A","N/A","N/A","3","2","3","1","0","0:30","0:00","7:00","3:30","0:00","00:00","00:00","07:00","03:00","00:00","08:30","00:00","06:00","3:30","00:00","00:30","00:30","00:00","4","1","4","0","4","3","3","3","0","1","2","3","2","1","1","3","4","0","2","3","2","1","1","4","$85 in 14 days","$40 tonight","$67 tonight","$34 tonight","$15 tonight","$32 tonight","$83 tonight","$21 tonight","$48 tonight","$40 tonight","$25 tonight","$65 tonight","$55 in 10 days","$30 tonight","$53 tonight","$47 tonight","$70 in 20 days","$50 tonight","$70 in 35 days","$27 tonight","$16 tonight","0.533333312","stim/H020.png","65","65","0.566666644","1","1","2","1","1","2","0","0","1","2","3","2","2","3","4","3","4","2","3","4","2","3","3","2","1","2","2","4","0","1","0","2","3","1","1","1","0","2","2","0","0","1","2","2","1","0","1","agree","null","","","","","","","","stim/H110.png","null","","",""
"html-keyboard-response","26","2878236","0.0-19.0-1.3","4b42tq65fqtq50h","1","616b2558cedf0fecc3464156","21","195","5.11.","Male","Black or African American ","No   ","High School ","Yes, but not at a university ","N/A","N/A","N/A","3","2","3","1","0","0:30","0:00","7:00","3:30","0:00","00:00","00:00","07:00","03:00","00:00","08:30","00:00","06:00","3:30","00:00","00:30","00:30","00:00","4","1","4","0","4","3","3","3","0","1","2","3","2","1","1","3","4","0","2","3","2","1","1","4","$85 in 14 days","$40 tonight","$67 tonight","$34 tonight","$15 tonight","$32 tonight","$83 tonight","$21 tonight","$48 tonight","$40 tonight","$25 tonight","$65 tonight","$55 in 10 days","$30 tonight","$53 tonight","$47 tonight","$70 in 20 days","$50 tonight","$70 in 35 days","$27 tonight","$16 tonight","0.533333312","stim/H020.png","65","65","0.566666644","1","1","2","1","1","2","0","0","1","2","3","2","2","3","4","3","4","2","3","4","2","3","3","2","1","2","2","4","0","1","0","2","3","1","1","1","0","2","2","0","0","1","2","2","1","0","1","agree","1067.5","","","","","","","","<div style=""font-size:60px;"">?</div>","65","4","Practice","0.5"
"image-keyboard-response","27","2879254","0.0-19.0-0.4","4b42tq65fqtq50h","1","616b2558cedf0fecc3464156","21","195","5.11.","Male","Black or African American ","No   ","High School ","Yes, but not at a university ","N/A","N/A","N/A","3","2","3","1","0","0:30","0:00","7:00","3:30","0:00","00:00","00:00","07:00","03:00","00:00","08:30","00:00","06:00","3:30","00:00","00:30","00:30","00:00","4","1","4","0","4","3","3","3","0","1","2","3","2","1","1","3","4","0","2","3","2","1","1","4","$85 in 14 days","$40 tonight","$67 tonight","$34 tonight","$15 tonight","$32 tonight","$83 tonight","$21 tonight","$48 tonight","$40 tonight","$25 tonight","$65 tonight","$55 in 10 days","$30 tonight","$53 tonight","$47 tonight","$70 in 20 days","$50 tonight","$70 in 35 days","$27 tonight","$16 tonight","0.533333312","stim/H020.png","65","65","0.566666644","1","1","2","1","1","2","0","0","1","2","3","2","2","3","4","3","4","2","3","4","2","3","3","2","1","2","2","4","0","1","0","2","3","1","1","1","0","2","2","0","0","1","2","2","1","0","1","agree","null","","","","","","","","stim/H210.png","null","","",""
"html-keyboard-response","28","2879665","0.0-19.0-1.4","4b42tq65fqtq50h","1","616b2558cedf0fecc3464156","21","195","5.11.","Male","Black or African American ","No   ","High School ","Yes, but not at a university ","N/A","N/A","N/A","3","2","3","1","0","0:30","0:00","7:00","3:30","0:00","00:00","00:00","07:00","03:00","00:00","08:30","00:00","06:00","3:30","00:00","00:30","00:30","00:00","4","1","4","0","4","3","3","3","0","1","2","3","2","1","1","3","4","0","2","3","2","1","1","4","$85 in 14 days","$40 tonight","$67 tonight","$34 tonight","$15 tonight","$32 tonight","$83 tonight","$21 tonight","$48 tonight","$40 tonight","$25 tonight","$65 tonight","$55 in 10 days","$30 tonight","$53 tonight","$47 tonight","$70 in 20 days","$50 tonight","$70 in 35 days","$27 tonight","$16 tonight","0.533333312","stim/H020.png","65","65","0.566666644","1","1","2","1","1","2","0","0","1","2","3","2","2","3","4","3","4","2","3","4","2","3","3","2","1","2","2","4","0","1","0","2","3","1","1","1","0","2","2","0","0","1","2","2","1","0","1","agree","410.2999999523163","","","","","","","","<div style=""font-size:60px;"">?</div>","76","5","Practice","0.5"
"image-keyboard-response","29","2880681","0.0-19.0-0.5","4b42tq65fqtq50h","1","616b2558cedf0fecc3464156","21","195","5.11.","Male","Black or African American ","No   ","High School ","Yes, but not at a university ","N/A","N/A","N/A","3","2","3","1","0","0:30","0:00","7:00","3:30","0:00","00:00","00:00","07:00","03:00","00:00","08:30","00:00","06:00","3:30","00:00","00:30","00:30","00:00","4","1","4","0","4","3","3","3","0","1","2","3","2","1","1","3","4","0","2","3","2","1","1","4","$85 in 14 days","$40 tonight","$67 tonight","$34 tonight","$15 tonight","$32 tonight","$83 tonight","$21 tonight","$48 tonight","$40 tonight","$25 tonight","$65 tonight","$55 in 10 days","$30 tonight","$53 tonight","$47 tonight","$70 in 20 days","$50 tonight","$70 in 35 days","$27 tonight","$16 tonight","0.533333312","stim/H020.png","65","65","0.566666644","1","1","2","1","1","2","0","0","1","2","3","2","2","3","4","3","4","2","3","4","2","3","3","2","1","2","2","4","0","1","0","2","3","1","1","1","0","2","2","0","0","1","2","2","1","0","1","agree","null","","","","","","","","stim/T180.png","null","","",""
"html-keyboard-response","30","2881044","0.0-19.0-1.5","4b42tq65fqtq50h","1","616b2558cedf0fecc3464156","21","195","5.11.","Male","Black or African American ","No   ","High School ","Yes, but not at a university ","N/A","N/A","N/A","3","2","3","1","0","0:30","0:00","7:00","3:30","0:00","00:00","00:00","07:00","03:00","00:00","08:30","00:00","06:00","3:30","00:00","00:30","00:30","00:00","4","1","4","0","4","3","3","3","0","1","2","3","2","1","1","3","4","0","2","3","2","1","1","4","$85 in 14 days","$40 tonight","$67 tonight","$34 tonight","$15 tonight","$32 tonight","$83 tonight","$21 tonight","$48 tonight","$40 tonight","$25 tonight","$65 tonight","$55 in 10 days","$30 tonight","$53 tonight","$47 tonight","$70 in 20 days","$50 tonight","$70 in 35 days","$27 tonight","$16 tonight","0.533333312","stim/H020.png","65","65","0.566666644","1","1","2","1","1","2","0","0","1","2","3","2","2","3","4","3","4","2","3","4","2","3","3","2","1","2","2","4","0","1","0","2","3","1","1","1","0","2","2","0","0","1","2","2","1","0","1","agree","363","","","","","","","","<div style=""font-size:60px;"">?</div>","65","6","Practice","0.5"
"image-keyboard-response","31","2882056","0.0-19.0-0.6","4b42tq65fqtq50h","1","616b2558cedf0fecc3464156","21","195","5.11.","Male","Black or African American ","No   ","High School ","Yes, but not at a university ","N/A","N/A","N/A","3","2","3","1","0","0:30","0:00","7:00","3:30","0:00","00:00","00:00","07:00","03:00","00:00","08:30","00:00","06:00","3:30","00:00","00:30","00:30","00:00","4","1","4","0","4","3","3","3","0","1","2","3","2","1","1","3","4","0","2","3","2","1","1","4","$85 in 14 days","$40 tonight","$67 tonight","$34 tonight","$15 tonight","$32 tonight","$83 tonight","$21 tonight","$48 tonight","$40 tonight","$25 tonight","$65 tonight","$55 in 10 days","$30 tonight","$53 tonight","$47 tonight","$70 in 20 days","$50 tonight","$70 in 35 days","$27 tonight","$16 tonight","0.533333312","stim/H020.png","65","65","0.566666644","1","1","2","1","1","2","0","0","1","2","3","2","2","3","4","3","4","2","3","4","2","3","3","2","1","2","2","4","0","1","0","2","3","1","1","1","0","2","2","0","0","1","2","2","1","0","1","agree","null","","","","","","","","stim/H300.png","null","","",""
"html-keyboard-response","32","2882964","0.0-19.0-1.6","4b42tq65fqtq50h","1","616b2558cedf0fecc3464156","21","195","5.11.","Male","Black or African American ","No   ","High School ","Yes, but not at a university ","N/A","N/A","N/A","3","2","3","1","0","0:30","0:00","7:00","3:30","0:00","00:00","00:00","07:00","03:00","00:00","08:30","00:00","06:00","3:30","00:00","00:30","00:30","00:00","4","1","4","0","4","3","3","3","0","1","2","3","2","1","1","3","4","0","2","3","2","1","1","4","$85 in 14 days","$40 tonight","$67 tonight","$34 tonight","$15 tonight","$32 tonight","$83 tonight","$21 tonight","$48 tonight","$40 tonight","$25 tonight","$65 tonight","$55 in 10 days","$30 tonight","$53 tonight","$47 tonight","$70 in 20 days","$50 tonight","$70 in 35 days","$27 tonight","$16 tonight","0.533333312","stim/H020.png","65","65","0.566666644","1","1","2","1","1","2","0","0","1","2","3","2","2","3","4","3","4","2","3","4","2","3","3","2","1","2","2","4","0","1","0","2","3","1","1","1","0","2","2","0","0","1","2","2","1","0","1","agree","906.1000001430511","","","","","","","","<div style=""font-size:60px;"">?</div>","76","7","Practice","0.5"
"image-keyboard-response","33","2883986","0.0-19.0-0.7","4b42tq65fqtq50h","1","616b2558cedf0fecc3464156","21","195","5.11.","Male","Black or African American ","No   ","High School ","Yes, but not at a university ","N/A","N/A","N/A","3","2","3","1","0","0:30","0:00","7:00","3:30","0:00","00:00","00:00","07:00","03:00","00:00","08:30","00:00","06:00","3:30","00:00","00:30","00:30","00:00","4","1","4","0","4","3","3","3","0","1","2","3","2","1","1","3","4","0","2","3","2","1","1","4","$85 in 14 days","$40 tonight","$67 tonight","$34 tonight","$15 tonight","$32 tonight","$83 tonight","$21 tonight","$48 tonight","$40 tonight","$25 tonight","$65 tonight","$55 in 10 days","$30 tonight","$53 tonight","$47 tonight","$70 in 20 days","$50 tonight","$70 in 35 days","$27 tonight","$16 tonight","0.533333312","stim/H020.png","65","65","0.566666644","1","1","2","1","1","2","0","0","1","2","3","2","2","3","4","3","4","2","3","4","2","3","3","2","1","2","2","4","0","1","0","2","3","1","1","1","0","2","2","0","0","1","2","2","1","0","1","agree","null","","","","","","","","stim/T240.png","null","","",""
"html-keyboard-response","34","2884491","0.0-19.0-1.7","4b42tq65fqtq50h","1","616b2558cedf0fecc3464156","21","195","5.11.","Male","Black or African American ","No   ","High School ","Yes, but not at a university ","N/A","N/A","N/A","3","2","3","1","0","0:30","0:00","7:00","3:30","0:00","00:00","00:00","07:00","03:00","00:00","08:30","00:00","06:00","3:30","00:00","00:30","00:30","00:00","4","1","4","0","4","3","3","3","0","1","2","3","2","1","1","3","4","0","2","3","2","1","1","4","$85 in 14 days","$40 tonight","$67 tonight","$34 tonight","$15 tonight","$32 tonight","$83 tonight","$21 tonight","$48 tonight","$40 tonight","$25 tonight","$65 tonight","$55 in 10 days","$30 tonight","$53 tonight","$47 tonight","$70 in 20 days","$50 tonight","$70 in 35 days","$27 tonight","$16 tonight","0.533333312","stim/H020.png","65","65","0.566666644","1","1","2","1","1","2","0","0","1","2","3","2","2","3","4","3","4","2","3","4","2","3","3","2","1","2","2","4","0","1","0","2","3","1","1","1","0","2","2","0","0","1","2","2","1","0","1","agree","504.39999985694885","","","","","","","","<div style=""font-size:60px;"">?</div>","65","8","Practice","0.5"
"image-keyboard-response","35","2885508","0.0-19.0-0.8","4b42tq65fqtq50h","1","616b2558cedf0fecc3464156","21","195","5.11.","Male","Black or African American ","No   ","High School ","Yes, but not at a university ","N/A","N/A","N/A","3","2","3","1","0","0:30","0:00","7:00","3:30","0:00","00:00","00:00","07:00","03:00","00:00","08:30","00:00","06:00","3:30","00:00","00:30","00:30","00:00","4","1","4","0","4","3","3","3","0","1","2","3","2","1","1","3","4","0","2","3","2","1","1","4","$85 in 14 days","$40 tonight","$67 tonight","$34 tonight","$15 tonight","$32 tonight","$83 tonight","$21 tonight","$48 tonight","$40 tonight","$25 tonight","$65 tonight","$55 in 10 days","$30 tonight","$53 tonight","$47 tonight","$70 in 20 days","$50 tonight","$70 in 35 days","$27 tonight","$16 tonight","0.533333312","stim/H020.png","65","65","0.566666644","1","1","2","1","1","2","0","0","1","2","3","2","2","3","4","3","4","2","3","4","2","3","3","2","1","2","2","4","0","1","0","2","3","1","1","1","0","2","2","0","0","1","2","2","1","0","1","agree","null","","","","","","","","stim/T210.png","null","","",""
"html-keyboard-response","36","2885809","0.0-19.0-1.8","4b42tq65fqtq50h","1","616b2558cedf0fecc3464156","21","195","5.11.","Male","Black or African American ","No   ","High School ","Yes, but not at a university ","N/A","N/A","N/A","3","2","3","1","0","0:30","0:00","7:00","3:30","0:00","00:00","00:00","07:00","03:00","00:00","08:30","00:00","06:00","3:30","00:00","00:30","00:30","00:00","4","1","4","0","4","3","3","3","0","1","2","3","2","1","1","3","4","0","2","3","2","1","1","4","$85 in 14 days","$40 tonight","$67 tonight","$34 tonight","$15 tonight","$32 tonight","$83 tonight","$21 tonight","$48 tonight","$40 tonight","$25 tonight","$65 tonight","$55 in 10 days","$30 tonight","$53 tonight","$47 tonight","$70 in 20 days","$50 tonight","$70 in 35 days","$27 tonight","$16 tonight","0.533333312","stim/H020.png","65","65","0.566666644","1","1","2","1","1","2","0","0","1","2","3","2","2","3","4","3","4","2","3","4","2","3","3","2","1","2","2","4","0","1","0","2","3","1","1","1","0","2","2","0","0","1","2","2","1","0","1","agree","299.7999999523163","","","","","","","","<div style=""font-size:60px;"">?</div>","65","9","Practice","0.5"
"image-keyboard-response","37","2886816","0.0-19.0-0.9","4b42tq65fqtq50h","1","616b2558cedf0fecc3464156","21","195","5.11.","Male","Black or African American ","No   ","High School ","Yes, but not at a university ","N/A","N/A","N/A","3","2","3","1","0","0:30","0:00","7:00","3:30","0:00","00:00","00:00","07:00","03:00","00:00","08:30","00:00","06:00","3:30","00:00","00:30","00:30","00:00","4","1","4","0","4","3","3","3","0","1","2","3","2","1","1","3","4","0","2","3","2","1","1","4","$85 in 14 days","$40 tonight","$67 tonight","$34 tonight","$15 tonight","$32 tonight","$83 tonight","$21 tonight","$48 tonight","$40 tonight","$25 tonight","$65 tonight","$55 in 10 days","$30 tonight","$53 tonight","$47 tonight","$70 in 20 days","$50 tonight","$70 in 35 days","$27 tonight","$16 tonight","0.533333312","stim/H020.png","65","65","0.566666644","1","1","2","1","1","2","0","0","1","2","3","2","2","3","4","3","4","2","3","4","2","3","3","2","1","2","2","4","0","1","0","2","3","1","1","1","0","2","2","0","0","1","2","2","1","0","1","agree","null","","","","","","","","stim/H180.png","null","","",""
"html-keyboard-response","38","2887755","0.0-19.0-1.9","4b42tq65fqtq50h","1","616b2558cedf0fecc3464156","21","195","5.11.","Male","Black or African American ","No   ","High School ","Yes, but not at a university ","N/A","N/A","N/A","3","2","3","1","0","0:30","0:00","7:00","3:30","0:00","00:00","00:00","07:00","03:00","00:00","08:30","00:00","06:00","3:30","00:00","00:30","00:30","00:00","4","1","4","0","4","3","3","3","0","1","2","3","2","1","1","3","4","0","2","3","2","1","1","4","$85 in 14 days","$40 tonight","$67 tonight","$34 tonight","$15 tonight","$32 tonight","$83 tonight","$21 tonight","$48 tonight","$40 tonight","$25 tonight","$65 tonight","$55 in 10 days","$30 tonight","$53 tonight","$47 tonight","$70 in 20 days","$50 tonight","$70 in 35 days","$27 tonight","$16 tonight","0.533333312","stim/H020.png","65","65","0.566666644","1","1","2","1","1","2","0","0","1","2","3","2","2","3","4","3","4","2","3","4","2","3","3","2","1","2","2","4","0","1","0","2","3","1","1","1","0","2","2","0","0","1","2","2","1","0","1","agree","938.0999999046326","","","","","","","","<div style=""font-size:60px;"">?</div>","65","10","Practice","0.5"
"html-keyboard-response","39","2902205","0.0-20.0","4b42tq65fqtq50h","1","616b2558cedf0fecc3464156","21","195","5.11.","Male","Black or African American ","No   ","High School ","Yes, but not at a university ","N/A","N/A","N/A","3","2","3","1","0","0:30","0:00","7:00","3:30","0:00","00:00","00:00","07:00","03:00","00:00","08:30","00:00","06:00","3:30","00:00","00:30","00:30","00:00","4","1","4","0","4","3","3","3","0","1","2","3","2","1","1","3","4","0","2","3","2","1","1","4","$85 in 14 days","$40 tonight","$67 tonight","$34 tonight","$15 tonight","$32 tonight","$83 tonight","$21 tonight","$48 tonight","$40 tonight","$25 tonight","$65 tonight","$55 in 10 days","$30 tonight","$53 tonight","$47 tonight","$70 in 20 days","$50 tonight","$70 in 35 days","$27 tonight","$16 tonight","0.533333312","stim/H020.png","65","65","0.566666644","1","1","2","1","1","2","0","0","1","2","3","2","2","3","4","3","4","2","3","4","2","3","3","2","1","2","2","4","0","1","0","2","3","1","1","1","0","2","2","0","0","1","2","2","1","0","1","agree","13946.200000047684","","","","","","","","<p>You have now completed the practice series.</p><p>If you have any questions, please reload this page and read the instructions again.</p><p>Otherwise, you're ready to begin the study.</p><p><strong>REMEMBER</strong>: Press <b>L </b>when you think the model is overweight, and <b>A </b>if not. </p><p>Press SPACE when you're ready to start!</p>","32","","",""
"html-keyboard-response","40","2905482","0.0-21.0","4b42tq65fqtq50h","1","616b2558cedf0fecc3464156","21","195","5.11.","Male","Black or African American ","No   ","High School ","Yes, but not at a university ","N/A","N/A","N/A","3","2","3","1","0","0:30","0:00","7:00","3:30","0:00","00:00","00:00","07:00","03:00","00:00","08:30","00:00","06:00","3:30","00:00","00:30","00:30","00:00","4","1","4","0","4","3","3","3","0","1","2","3","2","1","1","3","4","0","2","3","2","1","1","4","$85 in 14 days","$40 tonight","$67 tonight","$34 tonight","$15 tonight","$32 tonight","$83 tonight","$21 tonight","$48 tonight","$40 tonight","$25 tonight","$65 tonight","$55 in 10 days","$30 tonight","$53 tonight","$47 tonight","$70 in 20 days","$50 tonight","$70 in 35 days","$27 tonight","$16 tonight","0.533333312","stim/H020.png","65","65","0.566666644","1","1","2","1","1","2","0","0","1","2","3","2","2","3","4","3","4","2","3","4","2","3","3","2","1","2","2","4","0","1","0","2","3","1","1","1","0","2","2","0","0","1","2","2","1","0","1","agree","2763","","","","","","","","<p>Block 1</p><p>Press SPACE to continue.</p>","32","","",""
"image-keyboard-response","41","2906999","0.0-22.0-0.0","4b42tq65fqtq50h","1","616b2558cedf0fecc3464156","21","195","5.11.","Male","Black or African American ","No   ","High School ","Yes, but not at a university ","N/A","N/A","N/A","3","2","3","1","0","0:30","0:00","7:00","3:30","0:00","00:00","00:00","07:00","03:00","00:00","08:30","00:00","06:00","3:30","00:00","00:30","00:30","00:00","4","1","4","0","4","3","3","3","0","1","2","3","2","1","1","3","4","0","2","3","2","1","1","4","$85 in 14 days","$40 tonight","$67 tonight","$34 tonight","$15 tonight","$32 tonight","$83 tonight","$21 tonight","$48 tonight","$40 tonight","$25 tonight","$65 tonight","$55 in 10 days","$30 tonight","$53 tonight","$47 tonight","$70 in 20 days","$50 tonight","$70 in 35 days","$27 tonight","$16 tonight","0.533333312","stim/H020.png","65","65","0.566666644","1","1","2","1","1","2","0","0","1","2","3","2","2","3","4","3","4","2","3","4","2","3","3","2","1","2","2","4","0","1","0","2","3","1","1","1","0","2","2","0","0","1","2","2","1","0","1","agree","null","","","","","","","","stim/T200.png","null","","",""
"html-keyboard-response","42","2907335","0.0-22.0-1.0","4b42tq65fqtq50h","1","616b2558cedf0fecc3464156","21","195","5.11.","Male","Black or African American ","No   ","High School ","Yes, but not at a university ","N/A","N/A","N/A","3","2","3","1","0","0:30","0:00","7:00","3:30","0:00","00:00","00:00","07:00","03:00","00:00","08:30","00:00","06:00","3:30","00:00","00:30","00:30","00:00","4","1","4","0","4","3","3","3","0","1","2","3","2","1","1","3","4","0","2","3","2","1","1","4","$85 in 14 days","$40 tonight","$67 tonight","$34 tonight","$15 tonight","$32 tonight","$83 tonight","$21 tonight","$48 tonight","$40 tonight","$25 tonight","$65 tonight","$55 in 10 days","$30 tonight","$53 tonight","$47 tonight","$70 in 20 days","$50 tonight","$70 in 35 days","$27 tonight","$16 tonight","0.533333312","stim/H020.png","65","65","0.566666644","1","1","2","1","1","2","0","0","1","2","3","2","2","3","4","3","4","2","3","4","2","3","3","2","1","2","2","4","0","1","0","2","3","1","1","1","0","2","2","0","0","1","2","2","1","0","1","agree","335.40000009536743","","","","","","","","<div style=""font-size:60px;"">?</div>","65","1","1","0.5"
"image-keyboard-response","43","2908353","0.0-22.0-0.1","4b42tq65fqtq50h","1","616b2558cedf0fecc3464156","21","195","5.11.","Male","Black or African American ","No   ","High School ","Yes, but not at a university ","N/A","N/A","N/A","3","2","3","1","0","0:30","0:00","7:00","3:30","0:00","00:00","00:00","07:00","03:00","00:00","08:30","00:00","06:00","3:30","00:00","00:30","00:30","00:00","4","1","4","0","4","3","3","3","0","1","2","3","2","1","1","3","4","0","2","3","2","1","1","4","$85 in 14 days","$40 tonight","$67 tonight","$34 tonight","$15 tonight","$32 tonight","$83 tonight","$21 tonight","$48 tonight","$40 tonight","$25 tonight","$65 tonight","$55 in 10 days","$30 tonight","$53 tonight","$47 tonight","$70 in 20 days","$50 tonight","$70 in 35 days","$27 tonight","$16 tonight","0.533333312","stim/H020.png","65","65","0.566666644","1","1","2","1","1","2","0","0","1","2","3","2","2","3","4","3","4","2","3","4","2","3","3","2","1","2","2","4","0","1","0","2","3","1","1","1","0","2","2","0","0","1","2","2","1","0","1","agree","null","","","","","","","","stim/T110.png","null","","",""
"html-keyboard-response","44","2908661","0.0-22.0-1.1","4b42tq65fqtq50h","1","616b2558cedf0fecc3464156","21","195","5.11.","Male","Black or African American ","No   ","High School ","Yes, but not at a university ","N/A","N/A","N/A","3","2","3","1","0","0:30","0:00","7:00","3:30","0:00","00:00","00:00","07:00","03:00","00:00","08:30","00:00","06:00","3:30","00:00","00:30","00:30","00:00","4","1","4","0","4","3","3","3","0","1","2","3","2","1","1","3","4","0","2","3","2","1","1","4","$85 in 14 days","$40 tonight","$67 tonight","$34 tonight","$15 tonight","$32 tonight","$83 tonight","$21 tonight","$48 tonight","$40 tonight","$25 tonight","$65 tonight","$55 in 10 days","$30 tonight","$53 tonight","$47 tonight","$70 in 20 days","$50 tonight","$70 in 35 days","$27 tonight","$16 tonight","0.533333312","stim/H020.png","65","65","0.566666644","1","1","2","1","1","2","0","0","1","2","3","2","2","3","4","3","4","2","3","4","2","3","3","2","1","2","2","4","0","1","0","2","3","1","1","1","0","2","2","0","0","1","2","2","1","0","1","agree","306.60000014305115","","","","","","","","<div style=""font-size:60px;"">?</div>","65","2","1","0.5"
"image-keyboard-response","45","2909670","0.0-22.0-0.2","4b42tq65fqtq50h","1","616b2558cedf0fecc3464156","21","195","5.11.","Male","Black or African American ","No   ","High School ","Yes, but not at a university ","N/A","N/A","N/A","3","2","3","1","0","0:30","0:00","7:00","3:30","0:00","00:00","00:00","07:00","03:00","00:00","08:30","00:00","06:00","3:30","00:00","00:30","00:30","00:00","4","1","4","0","4","3","3","3","0","1","2","3","2","1","1","3","4","0","2","3","2","1","1","4","$85 in 14 days","$40 tonight","$67 tonight","$34 tonight","$15 tonight","$32 tonight","$83 tonight","$21 tonight","$48 tonight","$40 tonight","$25 tonight","$65 tonight","$55 in 10 days","$30 tonight","$53 tonight","$47 tonight","$70 in 20 days","$50 tonight","$70 in 35 days","$27 tonight","$16 tonight","0.533333312","stim/H020.png","65","65","0.566666644","1","1","2","1","1","2","0","0","1","2","3","2","2","3","4","3","4","2","3","4","2","3","3","2","1","2","2","4","0","1","0","2","3","1","1","1","0","2","2","0","0","1","2","2","1","0","1","agree","null","","","","","","","","stim/T060.png","null","","",""
"html-keyboard-response","46","2909969","0.0-22.0-1.2","4b42tq65fqtq50h","1","616b2558cedf0fecc3464156","21","195","5.11.","Male","Black or African American ","No   ","High School ","Yes, but not at a university ","N/A","N/A","N/A","3","2","3","1","0","0:30","0:00","7:00","3:30","0:00","00:00","00:00","07:00","03:00","00:00","08:30","00:00","06:00","3:30","00:00","00:30","00:30","00:00","4","1","4","0","4","3","3","3","0","1","2","3","2","1","1","3","4","0","2","3","2","1","1","4","$85 in 14 days","$40 tonight","$67 tonight","$34 tonight","$15 tonight","$32 tonight","$83 tonight","$21 tonight","$48 tonight","$40 tonight","$25 tonight","$65 tonight","$55 in 10 days","$30 tonight","$53 tonight","$47 tonight","$70 in 20 days","$50 tonight","$70 in 35 days","$27 tonight","$16 tonight","0.533333312","stim/H020.png","65","65","0.566666644","1","1","2","1","1","2","0","0","1","2","3","2","2","3","4","3","4","2","3","4","2","3","3","2","1","2","2","4","0","1","0","2","3","1","1","1","0","2","2","0","0","1","2","2","1","0","1","agree","298.2000000476837","","","","","","","","<div style=""font-size:60px;"">?</div>","65","3","1","0.5"
"image-keyboard-response","47","2910990","0.0-22.0-0.3","4b42tq65fqtq50h","1","616b2558cedf0fecc3464156","21","195","5.11.","Male","Black or African American ","No   ","High School ","Yes, but not at a university ","N/A","N/A","N/A","3","2","3","1","0","0:30","0:00","7:00","3:30","0:00","00:00","00:00","07:00","03:00","00:00","08:30","00:00","06:00","3:30","00:00","00:30","00:30","00:00","4","1","4","0","4","3","3","3","0","1","2","3","2","1","1","3","4","0","2","3","2","1","1","4","$85 in 14 days","$40 tonight","$67 tonight","$34 tonight","$15 tonight","$32 tonight","$83 tonight","$21 tonight","$48 tonight","$40 tonight","$25 tonight","$65 tonight","$55 in 10 days","$30 tonight","$53 tonight","$47 tonight","$70 in 20 days","$50 tonight","$70 in 35 days","$27 tonight","$16 tonight","0.533333312","stim/H020.png","65","65","0.566666644","1","1","2","1","1","2","0","0","1","2","3","2","2","3","4","3","4","2","3","4","2","3","3","2","1","2","2","4","0","1","0","2","3","1","1","1","0","2","2","0","0","1","2","2","1","0","1","agree","null","","","","","","","","stim/H120.png","null","","",""
"html-keyboard-response","48","2911413","0.0-22.0-1.3","4b42tq65fqtq50h","1","616b2558cedf0fecc3464156","21","195","5.11.","Male","Black or African American ","No   ","High School ","Yes, but not at a university ","N/A","N/A","N/A","3","2","3","1","0","0:30","0:00","7:00","3:30","0:00","00:00","00:00","07:00","03:00","00:00","08:30","00:00","06:00","3:30","00:00","00:30","00:30","00:00","4","1","4","0","4","3","3","3","0","1","2","3","2","1","1","3","4","0","2","3","2","1","1","4","$85 in 14 days","$40 tonight","$67 tonight","$34 tonight","$15 tonight","$32 tonight","$83 tonight","$21 tonight","$48 tonight","$40 tonight","$25 tonight","$65 tonight","$55 in 10 days","$30 tonight","$53 tonight","$47 tonight","$70 in 20 days","$50 tonight","$70 in 35 days","$27 tonight","$16 tonight","0.533333312","stim/H020.png","65","65","0.566666644","1","1","2","1","1","2","0","0","1","2","3","2","2","3","4","3","4","2","3","4","2","3","3","2","1","2","2","4","0","1","0","2","3","1","1","1","0","2","2","0","0","1","2","2","1","0","1","agree","421.09999990463257","","","","","","","","<div style=""font-size:60px;"">?</div>","65","4","1","0.5"
"image-keyboard-response","49","2912431","0.0-22.0-0.4","4b42tq65fqtq50h","1","616b2558cedf0fecc3464156","21","195","5.11.","Male","Black or African American ","No   ","High School ","Yes, but not at a university ","N/A","N/A","N/A","3","2","3","1","0","0:30","0:00","7:00","3:30","0:00","00:00","00:00","07:00","03:00","00:00","08:30","00:00","06:00","3:30","00:00","00:30","00:30","00:00","4","1","4","0","4","3","3","3","0","1","2","3","2","1","1","3","4","0","2","3","2","1","1","4","$85 in 14 days","$40 tonight","$67 tonight","$34 tonight","$15 tonight","$32 tonight","$83 tonight","$21 tonight","$48 tonight","$40 tonight","$25 tonight","$65 tonight","$55 in 10 days","$30 tonight","$53 tonight","$47 tonight","$70 in 20 days","$50 tonight","$70 in 35 days","$27 tonight","$16 tonight","0.533333312","stim/H020.png","65","65","0.566666644","1","1","2","1","1","2","0","0","1","2","3","2","2","3","4","3","4","2","3","4","2","3","3","2","1","2","2","4","0","1","0","2","3","1","1","1","0","2","2","0","0","1","2","2","1","0","1","agree","null","","","","","","","","stim/H150.png","null","","",""
"html-keyboard-response","50","2912876","0.0-22.0-1.4","4b42tq65fqtq50h","1","616b2558cedf0fecc3464156","21","195","5.11.","Male","Black or African American ","No   ","High School ","Yes, but not at a university ","N/A","N/A","N/A","3","2","3","1","0","0:30","0:00","7:00","3:30","0:00","00:00","00:00","07:00","03:00","00:00","08:30","00:00","06:00","3:30","00:00","00:30","00:30","00:00","4","1","4","0","4","3","3","3","0","1","2","3","2","1","1","3","4","0","2","3","2","1","1","4","$85 in 14 days","$40 tonight","$67 tonight","$34 tonight","$15 tonight","$32 tonight","$83 tonight","$21 tonight","$48 tonight","$40 tonight","$25 tonight","$65 tonight","$55 in 10 days","$30 tonight","$53 tonight","$47 tonight","$70 in 20 days","$50 tonight","$70 in 35 days","$27 tonight","$16 tonight","0.533333312","stim/H020.png","65","65","0.566666644","1","1","2","1","1","2","0","0","1","2","3","2","2","3","4","3","4","2","3","4","2","3","3","2","1","2","2","4","0","1","0","2","3","1","1","1","0","2","2","0","0","1","2","2","1","0","1","agree","444","","","","","","","","<div style=""font-size:60px;"">?</div>","65","5","1","0.5"
"image-keyboard-response","51","2913888","0.0-22.0-0.5","4b42tq65fqtq50h","1","616b2558cedf0fecc3464156","21","195","5.11.","Male","Black or African American ","No   ","High School ","Yes, but not at a university ","N/A","N/A","N/A","3","2","3","1","0","0:30","0:00","7:00","3:30","0:00","00:00","00:00","07:00","03:00","00:00","08:30","00:00","06:00","3:30","00:00","00:30","00:30","00:00","4","1","4","0","4","3","3","3","0","1","2","3","2","1","1","3","4","0","2","3","2","1","1","4","$85 in 14 days","$40 tonight","$67 tonight","$34 tonight","$15 tonight","$32 tonight","$83 tonight","$21 tonight","$48 tonight","$40 tonight","$25 tonight","$65 tonight","$55 in 10 days","$30 tonight","$53 tonight","$47 tonight","$70 in 20 days","$50 tonight","$70 in 35 days","$27 tonight","$16 tonight","0.533333312","stim/H020.png","65","65","0.566666644","1","1","2","1","1","2","0","0","1","2","3","2","2","3","4","3","4","2","3","4","2","3","3","2","1","2","2","4","0","1","0","2","3","1","1","1","0","2","2","0","0","1","2","2","1","0","1","agree","null","","","","","","","","stim/T030.png","null","","",""
"html-keyboard-response","52","2914203","0.0-22.0-1.5","4b42tq65fqtq50h","1","616b2558cedf0fecc3464156","21","195","5.11.","Male","Black or African American ","No   ","High School ","Yes, but not at a university ","N/A","N/A","N/A","3","2","3","1","0","0:30","0:00","7:00","3:30","0:00","00:00","00:00","07:00","03:00","00:00","08:30","00:00","06:00","3:30","00:00","00:30","00:30","00:00","4","1","4","0","4","3","3","3","0","1","2","3","2","1","1","3","4","0","2","3","2","1","1","4","$85 in 14 days","$40 tonight","$67 tonight","$34 tonight","$15 tonight","$32 tonight","$83 tonight","$21 tonight","$48 tonight","$40 tonight","$25 tonight","$65 tonight","$55 in 10 days","$30 tonight","$53 tonight","$47 tonight","$70 in 20 days","$50 tonight","$70 in 35 days","$27 tonight","$16 tonight","0.533333312","stim/H020.png","65","65","0.566666644","1","1","2","1","1","2","0","0","1","2","3","2","2","3","4","3","4","2","3","4","2","3","3","2","1","2","2","4","0","1","0","2","3","1","1","1","0","2","2","0","0","1","2","2","1","0","1","agree","314.09999990463257","","","","","","","","<div style=""font-size:60px;"">?</div>","65","6","1","0.5"
"image-keyboard-response","53","2915230","0.0-22.0-0.6","4b42tq65fqtq50h","1","616b2558cedf0fecc3464156","21","195","5.11.","Male","Black or African American ","No   ","High School ","Yes, but not at a university ","N/A","N/A","N/A","3","2","3","1","0","0:30","0:00","7:00","3:30","0:00","00:00","00:00","07:00","03:00","00:00","08:30","00:00","06:00","3:30","00:00","00:30","00:30","00:00","4","1","4","0","4","3","3","3","0","1","2","3","2","1","1","3","4","0","2","3","2","1","1","4","$85 in 14 days","$40 tonight","$67 tonight","$34 tonight","$15 tonight","$32 tonight","$83 tonight","$21 tonight","$48 tonight","$40 tonight","$25 tonight","$65 tonight","$55 in 10 days","$30 tonight","$53 tonight","$47 tonight","$70 in 20 days","$50 tonight","$70 in 35 days","$27 tonight","$16 tonight","0.533333312","stim/H020.png","65","65","0.566666644","1","1","2","1","1","2","0","0","1","2","3","2","2","3","4","3","4","2","3","4","2","3","3","2","1","2","2","4","0","1","0","2","3","1","1","1","0","2","2","0","0","1","2","2","1","0","1","agree","null","","","","","","","","stim/T200.png","null","","",""
"html-keyboard-response","54","2915533","0.0-22.0-1.6","4b42tq65fqtq50h","1","616b2558cedf0fecc3464156","21","195","5.11.","Male","Black or African American ","No   ","High School ","Yes, but not at a university ","N/A","N/A","N/A","3","2","3","1","0","0:30","0:00","7:00","3:30","0:00","00:00","00:00","07:00","03:00","00:00","08:30","00:00","06:00","3:30","00:00","00:30","00:30","00:00","4","1","4","0","4","3","3","3","0","1","2","3","2","1","1","3","4","0","2","3","2","1","1","4","$85 in 14 days","$40 tonight","$67 tonight","$34 tonight","$15 tonight","$32 tonight","$83 tonight","$21 tonight","$48 tonight","$40 tonight","$25 tonight","$65 tonight","$55 in 10 days","$30 tonight","$53 tonight","$47 tonight","$70 in 20 days","$50 tonight","$70 in 35 days","$27 tonight","$16 tonight","0.533333312","stim/H020.png","65","65","0.566666644","1","1","2","1","1","2","0","0","1","2","3","2","2","3","4","3","4","2","3","4","2","3","3","2","1","2","2","4","0","1","0","2","3","1","1","1","0","2","2","0","0","1","2","2","1","0","1","agree","303.19999980926514","","","","","","","","<div style=""font-size:60px;"">?</div>","65","7","1","0.5"
"image-keyboard-response","55","2916538","0.0-22.0-0.7","4b42tq65fqtq50h","1","616b2558cedf0fecc3464156","21","195","5.11.","Male","Black or African American ","No   ","High School ","Yes, but not at a university ","N/A","N/A","N/A","3","2","3","1","0","0:30","0:00","7:00","3:30","0:00","00:00","00:00","07:00","03:00","00:00","08:30","00:00","06:00","3:30","00:00","00:30","00:30","00:00","4","1","4","0","4","3","3","3","0","1","2","3","2","1","1","3","4","0","2","3","2","1","1","4","$85 in 14 days","$40 tonight","$67 tonight","$34 tonight","$15 tonight","$32 tonight","$83 tonight","$21 tonight","$48 tonight","$40 tonight","$25 tonight","$65 tonight","$55 in 10 days","$30 tonight","$53 tonight","$47 tonight","$70 in 20 days","$50 tonight","$70 in 35 days","$27 tonight","$16 tonight","0.533333312","stim/H020.png","65","65","0.566666644","1","1","2","1","1","2","0","0","1","2","3","2","2","3","4","3","4","2","3","4","2","3","3","2","1","2","2","4","0","1","0","2","3","1","1","1","0","2","2","0","0","1","2","2","1","0","1","agree","null","","","","","","","","stim/H110.png","null","","",""
"html-keyboard-response","56","2916887","0.0-22.0-1.7","4b42tq65fqtq50h","1","616b2558cedf0fecc3464156","21","195","5.11.","Male","Black or African American ","No   ","High School ","Yes, but not at a university ","N/A","N/A","N/A","3","2","3","1","0","0:30","0:00","7:00","3:30","0:00","00:00","00:00","07:00","03:00","00:00","08:30","00:00","06:00","3:30","00:00","00:30","00:30","00:00","4","1","4","0","4","3","3","3","0","1","2","3","2","1","1","3","4","0","2","3","2","1","1","4","$85 in 14 days","$40 tonight","$67 tonight","$34 tonight","$15 tonight","$32 tonight","$83 tonight","$21 tonight","$48 tonight","$40 tonight","$25 tonight","$65 tonight","$55 in 10 days","$30 tonight","$53 tonight","$47 tonight","$70 in 20 days","$50 tonight","$70 in 35 days","$27 tonight","$16 tonight","0.533333312","stim/H020.png","65","65","0.566666644","1","1","2","1","1","2","0","0","1","2","3","2","2","3","4","3","4","2","3","4","2","3","3","2","1","2","2","4","0","1","0","2","3","1","1","1","0","2","2","0","0","1","2","2","1","0","1","agree","348.2000000476837","","","","","","","","<div style=""font-size:60px;"">?</div>","65","8","1","0.5"
"image-keyboard-response","57","2917903","0.0-22.0-0.8","4b42tq65fqtq50h","1","616b2558cedf0fecc3464156","21","195","5.11.","Male","Black or African American ","No   ","High School ","Yes, but not at a university ","N/A","N/A","N/A","3","2","3","1","0","0:30","0:00","7:00","3:30","0:00","00:00","00:00","07:00","03:00","00:00","08:30","00:00","06:00","3:30","00:00","00:30","00:30","00:00","4","1","4","0","4","3","3","3","0","1","2","3","2","1","1","3","4","0","2","3","2","1","1","4","$85 in 14 days","$40 tonight","$67 tonight","$34 tonight","$15 tonight","$32 tonight","$83 tonight","$21 tonight","$48 tonight","$40 tonight","$25 tonight","$65 tonight","$55 in 10 days","$30 tonight","$53 tonight","$47 tonight","$70 in 20 days","$50 tonight","$70 in 35 days","$27 tonight","$16 tonight","0.533333312","stim/H020.png","65","65","0.566666644","1","1","2","1","1","2","0","0","1","2","3","2","2","3","4","3","4","2","3","4","2","3","3","2","1","2","2","4","0","1","0","2","3","1","1","1","0","2","2","0","0","1","2","2","1","0","1","agree","null","","","","","","","","stim/H300.png","null","","",""
"html-keyboard-response","58","2918135","0.0-22.0-1.8","4b42tq65fqtq50h","1","616b2558cedf0fecc3464156","21","195","5.11.","Male","Black or African American ","No   ","High School ","Yes, but not at a university ","N/A","N/A","N/A","3","2","3","1","0","0:30","0:00","7:00","3:30","0:00","00:00","00:00","07:00","03:00","00:00","08:30","00:00","06:00","3:30","00:00","00:30","00:30","00:00","4","1","4","0","4","3","3","3","0","1","2","3","2","1","1","3","4","0","2","3","2","1","1","4","$85 in 14 days","$40 tonight","$67 tonight","$34 tonight","$15 tonight","$32 tonight","$83 tonight","$21 tonight","$48 tonight","$40 tonight","$25 tonight","$65 tonight","$55 in 10 days","$30 tonight","$53 tonight","$47 tonight","$70 in 20 days","$50 tonight","$70 in 35 days","$27 tonight","$16 tonight","0.533333312","stim/H020.png","65","65","0.566666644","1","1","2","1","1","2","0","0","1","2","3","2","2","3","4","3","4","2","3","4","2","3","3","2","1","2","2","4","0","1","0","2","3","1","1","1","0","2","2","0","0","1","2","2","1","0","1","agree","231.19999980926514","","","","","","","","<div style=""font-size:60px;"">?</div>","76","9","1","0.5"
"image-keyboard-response","59","2919155","0.0-22.0-0.9","4b42tq65fqtq50h","1","616b2558cedf0fecc3464156","21","195","5.11.","Male","Black or African American ","No   ","High School ","Yes, but not at a university ","N/A","N/A","N/A","3","2","3","1","0","0:30","0:00","7:00","3:30","0:00","00:00","00:00","07:00","03:00","00:00","08:30","00:00","06:00","3:30","00:00","00:30","00:30","00:00","4","1","4","0","4","3","3","3","0","1","2","3","2","1","1","3","4","0","2","3","2","1","1","4","$85 in 14 days","$40 tonight","$67 tonight","$34 tonight","$15 tonight","$32 tonight","$83 tonight","$21 tonight","$48 tonight","$40 tonight","$25 tonight","$65 tonight","$55 in 10 days","$30 tonight","$53 tonight","$47 tonight","$70 in 20 days","$50 tonight","$70 in 35 days","$27 tonight","$16 tonight","0.533333312","stim/H020.png","65","65","0.566666644","1","1","2","1","1","2","0","0","1","2","3","2","2","3","4","3","4","2","3","4","2","3","3","2","1","2","2","4","0","1","0","2","3","1","1","1","0","2","2","0","0","1","2","2","1","0","1","agree","null","","","","","","","","stim/H130.png","null","","",""
"html-keyboard-response","60","2919396","0.0-22.0-1.9","4b42tq65fqtq50h","1","616b2558cedf0fecc3464156","21","195","5.11.","Male","Black or African American ","No   ","High School ","Yes, but not at a university ","N/A","N/A","N/A","3","2","3","1","0","0:30","0:00","7:00","3:30","0:00","00:00","00:00","07:00","03:00","00:00","08:30","00:00","06:00","3:30","00:00","00:30","00:30","00:00","4","1","4","0","4","3","3","3","0","1","2","3","2","1","1","3","4","0","2","3","2","1","1","4","$85 in 14 days","$40 tonight","$67 tonight","$34 tonight","$15 tonight","$32 tonight","$83 tonight","$21 tonight","$48 tonight","$40 tonight","$25 tonight","$65 tonight","$55 in 10 days","$30 tonight","$53 tonight","$47 tonight","$70 in 20 days","$50 tonight","$70 in 35 days","$27 tonight","$16 tonight","0.533333312","stim/H020.png","65","65","0.566666644","1","1","2","1","1","2","0","0","1","2","3","2","2","3","4","3","4","2","3","4","2","3","3","2","1","2","2","4","0","1","0","2","3","1","1","1","0","2","2","0","0","1","2","2","1","0","1","agree","240","","","","","","","","<div style=""font-size:60px;"">?</div>","65","10","1","0.5"
"image-keyboard-response","61","2920413","0.0-22.0-0.10","4b42tq65fqtq50h","1","616b2558cedf0fecc3464156","21","195","5.11.","Male","Black or African American ","No   ","High School ","Yes, but not at a university ","N/A","N/A","N/A","3","2","3","1","0","0:30","0:00","7:00","3:30","0:00","00:00","00:00","07:00","03:00","00:00","08:30","00:00","06:00","3:30","00:00","00:30","00:30","00:00","4","1","4","0","4","3","3","3","0","1","2","3","2","1","1","3","4","0","2","3","2","1","1","4","$85 in 14 days","$40 tonight","$67 tonight","$34 tonight","$15 tonight","$32 tonight","$83 tonight","$21 tonight","$48 tonight","$40 tonight","$25 tonight","$65 tonight","$55 in 10 days","$30 tonight","$53 tonight","$47 tonight","$70 in 20 days","$50 tonight","$70 in 35 days","$27 tonight","$16 tonight","0.533333312","stim/H020.png","65","65","0.566666644","1","1","2","1","1","2","0","0","1","2","3","2","2","3","4","3","4","2","3","4","2","3","3","2","1","2","2","4","0","1","0","2","3","1","1","1","0","2","2","0","0","1","2","2","1","0","1","agree","null","","","","","","","","stim/T240.png","null","","",""
"html-keyboard-response","62","2920830","0.0-22.0-1.10","4b42tq65fqtq50h","1","616b2558cedf0fecc3464156","21","195","5.11.","Male","Black or African American ","No   ","High School ","Yes, but not at a university ","N/A","N/A","N/A","3","2","3","1","0","0:30","0:00","7:00","3:30","0:00","00:00","00:00","07:00","03:00","00:00","08:30","00:00","06:00","3:30","00:00","00:30","00:30","00:00","4","1","4","0","4","3","3","3","0","1","2","3","2","1","1","3","4","0","2","3","2","1","1","4","$85 in 14 days","$40 tonight","$67 tonight","$34 tonight","$15 tonight","$32 tonight","$83 tonight","$21 tonight","$48 tonight","$40 tonight","$25 tonight","$65 tonight","$55 in 10 days","$30 tonight","$53 tonight","$47 tonight","$70 in 20 days","$50 tonight","$70 in 35 days","$27 tonight","$16 tonight","0.533333312","stim/H020.png","65","65","0.566666644","1","1","2","1","1","2","0","0","1","2","3","2","2","3","4","3","4","2","3","4","2","3","3","2","1","2","2","4","0","1","0","2","3","1","1","1","0","2","2","0","0","1","2","2","1","0","1","agree","416.40000009536743","","","","","","","","<div style=""font-size:60px;"">?</div>","65","11","1","0.5"
"image-keyboard-response","63","2921875","0.0-22.0-0.11","4b42tq65fqtq50h","1","616b2558cedf0fecc3464156","21","195","5.11.","Male","Black or African American ","No   ","High School ","Yes, but not at a university ","N/A","N/A","N/A","3","2","3","1","0","0:30","0:00","7:00","3:30","0:00","00:00","00:00","07:00","03:00","00:00","08:30","00:00","06:00","3:30","00:00","00:30","00:30","00:00","4","1","4","0","4","3","3","3","0","1","2","3","2","1","1","3","4","0","2","3","2","1","1","4","$85 in 14 days","$40 tonight","$67 tonight","$34 tonight","$15 tonight","$32 tonight","$83 tonight","$21 tonight","$48 tonight","$40 tonight","$25 tonight","$65 tonight","$55 in 10 days","$30 tonight","$53 tonight","$47 tonight","$70 in 20 days","$50 tonight","$70 in 35 days","$27 tonight","$16 tonight","0.533333312","stim/H020.png","65","65","0.566666644","1","1","2","1","1","2","0","0","1","2","3","2","2","3","4","3","4","2","3","4","2","3","3","2","1","2","2","4","0","1","0","2","3","1","1","1","0","2","2","0","0","1","2","2","1","0","1","agree","null","","","","","","","","stim/T060.png","null","","",""
"html-keyboard-response","64","2922111","0.0-22.0-1.11","4b42tq65fqtq50h","1","616b2558cedf0fecc3464156","21","195","5.11.","Male","Black or African American ","No   ","High School ","Yes, but not at a university ","N/A","N/A","N/A","3","2","3","1","0","0:30","0:00","7:00","3:30","0:00","00:00","00:00","07:00","03:00","00:00","08:30","00:00","06:00","3:30","00:00","00:30","00:30","00:00","4","1","4","0","4","3","3","3","0","1","2","3","2","1","1","3","4","0","2","3","2","1","1","4","$85 in 14 days","$40 tonight","$67 tonight","$34 tonight","$15 tonight","$32 tonight","$83 tonight","$21 tonight","$48 tonight","$40 tonight","$25 tonight","$65 tonight","$55 in 10 days","$30 tonight","$53 tonight","$47 tonight","$70 in 20 days","$50 tonight","$70 in 35 days","$27 tonight","$16 tonight","0.533333312","stim/H020.png","65","65","0.566666644","1","1","2","1","1","2","0","0","1","2","3","2","2","3","4","3","4","2","3","4","2","3","3","2","1","2","2","4","0","1","0","2","3","1","1","1","0","2","2","0","0","1","2","2","1","0","1","agree","235.30000019073486","","","","","","","","<div style=""font-size:60px;"">?</div>","65","12","1","0.5"
"image-keyboard-response","65","2923136","0.0-22.0-0.12","4b42tq65fqtq50h","1","616b2558cedf0fecc3464156","21","195","5.11.","Male","Black or African American ","No   ","High School ","Yes, but not at a university ","N/A","N/A","N/A","3","2","3","1","0","0:30","0:00","7:00","3:30","0:00","00:00","00:00","07:00","03:00","00:00","08:30","00:00","06:00","3:30","00:00","00:30","00:30","00:00","4","1","4","0","4","3","3","3","0","1","2","3","2","1","1","3","4","0","2","3","2","1","1","4","$85 in 14 days","$40 tonight","$67 tonight","$34 tonight","$15 tonight","$32 tonight","$83 tonight","$21 tonight","$48 tonight","$40 tonight","$25 tonight","$65 tonight","$55 in 10 days","$30 tonight","$53 tonight","$47 tonight","$70 in 20 days","$50 tonight","$70 in 35 days","$27 tonight","$16 tonight","0.533333312","stim/H020.png","65","65","0.566666644","1","1","2","1","1","2","0","0","1","2","3","2","2","3","4","3","4","2","3","4","2","3","3","2","1","2","2","4","0","1","0","2","3","1","1","1","0","2","2","0","0","1","2","2","1","0","1","agree","null","","","","","","","","stim/T220.png","null","","",""
"html-keyboard-response","66","2923594","0.0-22.0-1.12","4b42tq65fqtq50h","1","616b2558cedf0fecc3464156","21","195","5.11.","Male","Black or African American ","No   ","High School ","Yes, but not at a university ","N/A","N/A","N/A","3","2","3","1","0","0:30","0:00","7:00","3:30","0:00","00:00","00:00","07:00","03:00","00:00","08:30","00:00","06:00","3:30","00:00","00:30","00:30","00:00","4","1","4","0","4","3","3","3","0","1","2","3","2","1","1","3","4","0","2","3","2","1","1","4","$85 in 14 days","$40 tonight","$67 tonight","$34 tonight","$15 tonight","$32 tonight","$83 tonight","$21 tonight","$48 tonight","$40 tonight","$25 tonight","$65 tonight","$55 in 10 days","$30 tonight","$53 tonight","$47 tonight","$70 in 20 days","$50 tonight","$70 in 35 days","$27 tonight","$16 tonight","0.533333312","stim/H020.png","65","65","0.566666644","1","1","2","1","1","2","0","0","1","2","3","2","2","3","4","3","4","2","3","4","2","3","3","2","1","2","2","4","0","1","0","2","3","1","1","1","0","2","2","0","0","1","2","2","1","0","1","agree","457.19999980926514","","","","","","","","<div style=""font-size:60px;"">?</div>","65","13","1","0.5"
"image-keyboard-response","67","2924618","0.0-22.0-0.13","4b42tq65fqtq50h","1","616b2558cedf0fecc3464156","21","195","5.11.","Male","Black or African American ","No   ","High School ","Yes, but not at a university ","N/A","N/A","N/A","3","2","3","1","0","0:30","0:00","7:00","3:30","0:00","00:00","00:00","07:00","03:00","00:00","08:30","00:00","06:00","3:30","00:00","00:30","00:30","00:00","4","1","4","0","4","3","3","3","0","1","2","3","2","1","1","3","4","0","2","3","2","1","1","4","$85 in 14 days","$40 tonight","$67 tonight","$34 tonight","$15 tonight","$32 tonight","$83 tonight","$21 tonight","$48 tonight","$40 tonight","$25 tonight","$65 tonight","$55 in 10 days","$30 tonight","$53 tonight","$47 tonight","$70 in 20 days","$50 tonight","$70 in 35 days","$27 tonight","$16 tonight","0.533333312","stim/H020.png","65","65","0.566666644","1","1","2","1","1","2","0","0","1","2","3","2","2","3","4","3","4","2","3","4","2","3","3","2","1","2","2","4","0","1","0","2","3","1","1","1","0","2","2","0","0","1","2","2","1","0","1","agree","null","","","","","","","","stim/T300.png","null","","",""
"html-keyboard-response","68","2925014","0.0-22.0-1.13","4b42tq65fqtq50h","1","616b2558cedf0fecc3464156","21","195","5.11.","Male","Black or African American ","No   ","High School ","Yes, but not at a university ","N/A","N/A","N/A","3","2","3","1","0","0:30","0:00","7:00","3:30","0:00","00:00","00:00","07:00","03:00","00:00","08:30","00:00","06:00","3:30","00:00","00:30","00:30","00:00","4","1","4","0","4","3","3","3","0","1","2","3","2","1","1","3","4","0","2","3","2","1","1","4","$85 in 14 days","$40 tonight","$67 tonight","$34 tonight","$15 tonight","$32 tonight","$83 tonight","$21 tonight","$48 tonight","$40 tonight","$25 tonight","$65 tonight","$55 in 10 days","$30 tonight","$53 tonight","$47 tonight","$70 in 20 days","$50 tonight","$70 in 35 days","$27 tonight","$16 tonight","0.533333312","stim/H020.png","65","65","0.566666644","1","1","2","1","1","2","0","0","1","2","3","2","2","3","4","3","4","2","3","4","2","3","3","2","1","2","2","4","0","1","0","2","3","1","1","1","0","2","2","0","0","1","2","2","1","0","1","agree","395.2999999523163","","","","","","","","<div style=""font-size:60px;"">?</div>","65","14","1","0.5"
"image-keyboard-response","69","2926040","0.0-22.0-0.14","4b42tq65fqtq50h","1","616b2558cedf0fecc3464156","21","195","5.11.","Male","Black or African American ","No   ","High School ","Yes, but not at a university ","N/A","N/A","N/A","3","2","3","1","0","0:30","0:00","7:00","3:30","0:00","00:00","00:00","07:00","03:00","00:00","08:30","00:00","06:00","3:30","00:00","00:30","00:30","00:00","4","1","4","0","4","3","3","3","0","1","2","3","2","1","1","3","4","0","2","3","2","1","1","4","$85 in 14 days","$40 tonight","$67 tonight","$34 tonight","$15 tonight","$32 tonight","$83 tonight","$21 tonight","$48 tonight","$40 tonight","$25 tonight","$65 tonight","$55 in 10 days","$30 tonight","$53 tonight","$47 tonight","$70 in 20 days","$50 tonight","$70 in 35 days","$27 tonight","$16 tonight","0.533333312","stim/H020.png","65","65","0.566666644","1","1","2","1","1","2","0","0","1","2","3","2","2","3","4","3","4","2","3","4","2","3","3","2","1","2","2","4","0","1","0","2","3","1","1","1","0","2","2","0","0","1","2","2","1","0","1","agree","null","","","","","","","","stim/H090.png","null","","",""
"html-keyboard-response","70","2926437","0.0-22.0-1.14","4b42tq65fqtq50h","1","616b2558cedf0fecc3464156","21","195","5.11.","Male","Black or African American ","No   ","High School ","Yes, but not at a university ","N/A","N/A","N/A","3","2","3","1","0","0:30","0:00","7:00","3:30","0:00","00:00","00:00","07:00","03:00","00:00","08:30","00:00","06:00","3:30","00:00","00:30","00:30","00:00","4","1","4","0","4","3","3","3","0","1","2","3","2","1","1","3","4","0","2","3","2","1","1","4","$85 in 14 days","$40 tonight","$67 tonight","$34 tonight","$15 tonight","$32 tonight","$83 tonight","$21 tonight","$48 tonight","$40 tonight","$25 tonight","$65 tonight","$55 in 10 days","$30 tonight","$53 tonight","$47 tonight","$70 in 20 days","$50 tonight","$70 in 35 days","$27 tonight","$16 tonight","0.533333312","stim/H020.png","65","65","0.566666644","1","1","2","1","1","2","0","0","1","2","3","2","2","3","4","3","4","2","3","4","2","3","3","2","1","2","2","4","0","1","0","2","3","1","1","1","0","2","2","0","0","1","2","2","1","0","1","agree","394.2999999523163","","","","","","","","<div style=""font-size:60px;"">?</div>","65","15","1","0.5"
"image-keyboard-response","71","2927453","0.0-22.0-0.15","4b42tq65fqtq50h","1","616b2558cedf0fecc3464156","21","195","5.11.","Male","Black or African American ","No   ","High School ","Yes, but not at a university ","N/A","N/A","N/A","3","2","3","1","0","0:30","0:00","7:00","3:30","0:00","00:00","00:00","07:00","03:00","00:00","08:30","00:00","06:00","3:30","00:00","00:30","00:30","00:00","4","1","4","0","4","3","3","3","0","1","2","3","2","1","1","3","4","0","2","3","2","1","1","4","$85 in 14 days","$40 tonight","$67 tonight","$34 tonight","$15 tonight","$32 tonight","$83 tonight","$21 tonight","$48 tonight","$40 tonight","$25 tonight","$65 tonight","$55 in 10 days","$30 tonight","$53 tonight","$47 tonight","$70 in 20 days","$50 tonight","$70 in 35 days","$27 tonight","$16 tonight","0.533333312","stim/H020.png","65","65","0.566666644","1","1","2","1","1","2","0","0","1","2","3","2","2","3","4","3","4","2","3","4","2","3","3","2","1","2","2","4","0","1","0","2","3","1","1","1","0","2","2","0","0","1","2","2","1","0","1","agree","null","","","","","","","","stim/H060.png","null","","",""
"html-keyboard-response","72","2927751","0.0-22.0-1.15","4b42tq65fqtq50h","1","616b2558cedf0fecc3464156","21","195","5.11.","Male","Black or African American ","No   ","High School ","Yes, but not at a university ","N/A","N/A","N/A","3","2","3","1","0","0:30","0:00","7:00","3:30","0:00","00:00","00:00","07:00","03:00","00:00","08:30","00:00","06:00","3:30","00:00","00:30","00:30","00:00","4","1","4","0","4","3","3","3","0","1","2","3","2","1","1","3","4","0","2","3","2","1","1","4","$85 in 14 days","$40 tonight","$67 tonight","$34 tonight","$15 tonight","$32 tonight","$83 tonight","$21 tonight","$48 tonight","$40 tonight","$25 tonight","$65 tonight","$55 in 10 days","$30 tonight","$53 tonight","$47 tonight","$70 in 20 days","$50 tonight","$70 in 35 days","$27 tonight","$16 tonight","0.533333312","stim/H020.png","65","65","0.566666644","1","1","2","1","1","2","0","0","1","2","3","2","2","3","4","3","4","2","3","4","2","3","3","2","1","2","2","4","0","1","0","2","3","1","1","1","0","2","2","0","0","1","2","2","1","0","1","agree","297.2999999523163","","","","","","","","<div style=""font-size:60px;"">?</div>","65","16","1","0.5"
"image-keyboard-response","73","2928765","0.0-22.0-0.16","4b42tq65fqtq50h","1","616b2558cedf0fecc3464156","21","195","5.11.","Male","Black or African American ","No   ","High School ","Yes, but not at a university ","N/A","N/A","N/A","3","2","3","1","0","0:30","0:00","7:00","3:30","0:00","00:00","00:00","07:00","03:00","00:00","08:30","00:00","06:00","3:30","00:00","00:30","00:30","00:00","4","1","4","0","4","3","3","3","0","1","2","3","2","1","1","3","4","0","2","3","2","1","1","4","$85 in 14 days","$40 tonight","$67 tonight","$34 tonight","$15 tonight","$32 tonight","$83 tonight","$21 tonight","$48 tonight","$40 tonight","$25 tonight","$65 tonight","$55 in 10 days","$30 tonight","$53 tonight","$47 tonight","$70 in 20 days","$50 tonight","$70 in 35 days","$27 tonight","$16 tonight","0.533333312","stim/H020.png","65","65","0.566666644","1","1","2","1","1","2","0","0","1","2","3","2","2","3","4","3","4","2","3","4","2","3","3","2","1","2","2","4","0","1","0","2","3","1","1","1","0","2","2","0","0","1","2","2","1","0","1","agree","null","","","","","","","","stim/H290.png","null","","",""
"html-keyboard-response","74","2929198","0.0-22.0-1.16","4b42tq65fqtq50h","1","616b2558cedf0fecc3464156","21","195","5.11.","Male","Black or African American ","No   ","High School ","Yes, but not at a university ","N/A","N/A","N/A","3","2","3","1","0","0:30","0:00","7:00","3:30","0:00","00:00","00:00","07:00","03:00","00:00","08:30","00:00","06:00","3:30","00:00","00:30","00:30","00:00","4","1","4","0","4","3","3","3","0","1","2","3","2","1","1","3","4","0","2","3","2","1","1","4","$85 in 14 days","$40 tonight","$67 tonight","$34 tonight","$15 tonight","$32 tonight","$83 tonight","$21 tonight","$48 tonight","$40 tonight","$25 tonight","$65 tonight","$55 in 10 days","$30 tonight","$53 tonight","$47 tonight","$70 in 20 days","$50 tonight","$70 in 35 days","$27 tonight","$16 tonight","0.533333312","stim/H020.png","65","65","0.566666644","1","1","2","1","1","2","0","0","1","2","3","2","2","3","4","3","4","2","3","4","2","3","3","2","1","2","2","4","0","1","0","2","3","1","1","1","0","2","2","0","0","1","2","2","1","0","1","agree","431.59999990463257","","","","","","","","<div style=""font-size:60px;"">?</div>","76","17","1","0.5"
"image-keyboard-response","75","2930216","0.0-22.0-0.17","4b42tq65fqtq50h","1","616b2558cedf0fecc3464156","21","195","5.11.","Male","Black or African American ","No   ","High School ","Yes, but not at a university ","N/A","N/A","N/A","3","2","3","1","0","0:30","0:00","7:00","3:30","0:00","00:00","00:00","07:00","03:00","00:00","08:30","00:00","06:00","3:30","00:00","00:30","00:30","00:00","4","1","4","0","4","3","3","3","0","1","2","3","2","1","1","3","4","0","2","3","2","1","1","4","$85 in 14 days","$40 tonight","$67 tonight","$34 tonight","$15 tonight","$32 tonight","$83 tonight","$21 tonight","$48 tonight","$40 tonight","$25 tonight","$65 tonight","$55 in 10 days","$30 tonight","$53 tonight","$47 tonight","$70 in 20 days","$50 tonight","$70 in 35 days","$27 tonight","$16 tonight","0.533333312","stim/H020.png","65","65","0.566666644","1","1","2","1","1","2","0","0","1","2","3","2","2","3","4","3","4","2","3","4","2","3","3","2","1","2","2","4","0","1","0","2","3","1","1","1","0","2","2","0","0","1","2","2","1","0","1","agree","null","","","","","","","","stim/H060.png","null","","",""
"html-keyboard-response","76","2930494","0.0-22.0-1.17","4b42tq65fqtq50h","1","616b2558cedf0fecc3464156","21","195","5.11.","Male","Black or African American ","No   ","High School ","Yes, but not at a university ","N/A","N/A","N/A","3","2","3","1","0","0:30","0:00","7:00","3:30","0:00","00:00","00:00","07:00","03:00","00:00","08:30","00:00","06:00","3:30","00:00","00:30","00:30","00:00","4","1","4","0","4","3","3","3","0","1","2","3","2","1","1","3","4","0","2","3","2","1","1","4","$85 in 14 days","$40 tonight","$67 tonight","$34 tonight","$15 tonight","$32 tonight","$83 tonight","$21 tonight","$48 tonight","$40 tonight","$25 tonight","$65 tonight","$55 in 10 days","$30 tonight","$53 tonight","$47 tonight","$70 in 20 days","$50 tonight","$70 in 35 days","$27 tonight","$16 tonight","0.533333312","stim/H020.png","65","65","0.566666644","1","1","2","1","1","2","0","0","1","2","3","2","2","3","4","3","4","2","3","4","2","3","3","2","1","2","2","4","0","1","0","2","3","1","1","1","0","2","2","0","0","1","2","2","1","0","1","agree","277.10000014305115","","","","","","","","<div style=""font-size:60px;"">?</div>","65","18","1","0.5"
"image-keyboard-response","77","2931504","0.0-22.0-0.18","4b42tq65fqtq50h","1","616b2558cedf0fecc3464156","21","195","5.11.","Male","Black or African American ","No   ","High School ","Yes, but not at a university ","N/A","N/A","N/A","3","2","3","1","0","0:30","0:00","7:00","3:30","0:00","00:00","00:00","07:00","03:00","00:00","08:30","00:00","06:00","3:30","00:00","00:30","00:30","00:00","4","1","4","0","4","3","3","3","0","1","2","3","2","1","1","3","4","0","2","3","2","1","1","4","$85 in 14 days","$40 tonight","$67 tonight","$34 tonight","$15 tonight","$32 tonight","$83 tonight","$21 tonight","$48 tonight","$40 tonight","$25 tonight","$65 tonight","$55 in 10 days","$30 tonight","$53 tonight","$47 tonight","$70 in 20 days","$50 tonight","$70 in 35 days","$27 tonight","$16 tonight","0.533333312","stim/H020.png","65","65","0.566666644","1","1","2","1","1","2","0","0","1","2","3","2","2","3","4","3","4","2","3","4","2","3","3","2","1","2","2","4","0","1","0","2","3","1","1","1","0","2","2","0","0","1","2","2","1","0","1","agree","null","","","","","","","","stim/H060.png","null","","",""
"html-keyboard-response","78","2931905","0.0-22.0-1.18","4b42tq65fqtq50h","1","616b2558cedf0fecc3464156","21","195","5.11.","Male","Black or African American ","No   ","High School ","Yes, but not at a university ","N/A","N/A","N/A","3","2","3","1","0","0:30","0:00","7:00","3:30","0:00","00:00","00:00","07:00","03:00","00:00","08:30","00:00","06:00","3:30","00:00","00:30","00:30","00:00","4","1","4","0","4","3","3","3","0","1","2","3","2","1","1","3","4","0","2","3","2","1","1","4","$85 in 14 days","$40 tonight","$67 tonight","$34 tonight","$15 tonight","$32 tonight","$83 tonight","$21 tonight","$48 tonight","$40 tonight","$25 tonight","$65 tonight","$55 in 10 days","$30 tonight","$53 tonight","$47 tonight","$70 in 20 days","$50 tonight","$70 in 35 days","$27 tonight","$16 tonight","0.533333312","stim/H020.png","65","65","0.566666644","1","1","2","1","1","2","0","0","1","2","3","2","2","3","4","3","4","2","3","4","2","3","3","2","1","2","2","4","0","1","0","2","3","1","1","1","0","2","2","0","0","1","2","2","1","0","1","agree","399.7000000476837","","","","","","","","<div style=""font-size:60px;"">?</div>","65","19","1","0.5"
"image-keyboard-response","79","2932921","0.0-22.0-0.19","4b42tq65fqtq50h","1","616b2558cedf0fecc3464156","21","195","5.11.","Male","Black or African American ","No   ","High School ","Yes, but not at a university ","N/A","N/A","N/A","3","2","3","1","0","0:30","0:00","7:00","3:30","0:00","00:00","00:00","07:00","03:00","00:00","08:30","00:00","06:00","3:30","00:00","00:30","00:30","00:00","4","1","4","0","4","3","3","3","0","1","2","3","2","1","1","3","4","0","2","3","2","1","1","4","$85 in 14 days","$40 tonight","$67 tonight","$34 tonight","$15 tonight","$32 tonight","$83 tonight","$21 tonight","$48 tonight","$40 tonight","$25 tonight","$65 tonight","$55 in 10 days","$30 tonight","$53 tonight","$47 tonight","$70 in 20 days","$50 tonight","$70 in 35 days","$27 tonight","$16 tonight","0.533333312","stim/H020.png","65","65","0.566666644","1","1","2","1","1","2","0","0","1","2","3","2","2","3","4","3","4","2","3","4","2","3","3","2","1","2","2","4","0","1","0","2","3","1","1","1","0","2","2","0","0","1","2","2","1","0","1","agree","null","","","","","","","","stim/T240.png","null","","",""
"html-keyboard-response","80","2933303","0.0-22.0-1.19","4b42tq65fqtq50h","1","616b2558cedf0fecc3464156","21","195","5.11.","Male","Black or African American ","No   ","High School ","Yes, but not at a university ","N/A","N/A","N/A","3","2","3","1","0","0:30","0:00","7:00","3:30","0:00","00:00","00:00","07:00","03:00","00:00","08:30","00:00","06:00","3:30","00:00","00:30","00:30","00:00","4","1","4","0","4","3","3","3","0","1","2","3","2","1","1","3","4","0","2","3","2","1","1","4","$85 in 14 days","$40 tonight","$67 tonight","$34 tonight","$15 tonight","$32 tonight","$83 tonight","$21 tonight","$48 tonight","$40 tonight","$25 tonight","$65 tonight","$55 in 10 days","$30 tonight","$53 tonight","$47 tonight","$70 in 20 days","$50 tonight","$70 in 35 days","$27 tonight","$16 tonight","0.533333312","stim/H020.png","65","65","0.566666644","1","1","2","1","1","2","0","0","1","2","3","2","2","3","4","3","4","2","3","4","2","3","3","2","1","2","2","4","0","1","0","2","3","1","1","1","0","2","2","0","0","1","2","2","1","0","1","agree","381.5","","","","","","","","<div style=""font-size:60px;"">?</div>","65","20","1","0.5"
"image-keyboard-response","81","2934321","0.0-22.0-0.20","4b42tq65fqtq50h","1","616b2558cedf0fecc3464156","21","195","5.11.","Male","Black or African American ","No   ","High School ","Yes, but not at a university ","N/A","N/A","N/A","3","2","3","1","0","0:30","0:00","7:00","3:30","0:00","00:00","00:00","07:00","03:00","00:00","08:30","00:00","06:00","3:30","00:00","00:30","00:30","00:00","4","1","4","0","4","3","3","3","0","1","2","3","2","1","1","3","4","0","2","3","2","1","1","4","$85 in 14 days","$40 tonight","$67 tonight","$34 tonight","$15 tonight","$32 tonight","$83 tonight","$21 tonight","$48 tonight","$40 tonight","$25 tonight","$65 tonight","$55 in 10 days","$30 tonight","$53 tonight","$47 tonight","$70 in 20 days","$50 tonight","$70 in 35 days","$27 tonight","$16 tonight","0.533333312","stim/H020.png","65","65","0.566666644","1","1","2","1","1","2","0","0","1","2","3","2","2","3","4","3","4","2","3","4","2","3","3","2","1","2","2","4","0","1","0","2","3","1","1","1","0","2","2","0","0","1","2","2","1","0","1","agree","null","","","","","","","","stim/T280.png","null","","",""
"html-keyboard-response","82","2934831","0.0-22.0-1.20","4b42tq65fqtq50h","1","616b2558cedf0fecc3464156","21","195","5.11.","Male","Black or African American ","No   ","High School ","Yes, but not at a university ","N/A","N/A","N/A","3","2","3","1","0","0:30","0:00","7:00","3:30","0:00","00:00","00:00","07:00","03:00","00:00","08:30","00:00","06:00","3:30","00:00","00:30","00:30","00:00","4","1","4","0","4","3","3","3","0","1","2","3","2","1","1","3","4","0","2","3","2","1","1","4","$85 in 14 days","$40 tonight","$67 tonight","$34 tonight","$15 tonight","$32 tonight","$83 tonight","$21 tonight","$48 tonight","$40 tonight","$25 tonight","$65 tonight","$55 in 10 days","$30 tonight","$53 tonight","$47 tonight","$70 in 20 days","$50 tonight","$70 in 35 days","$27 tonight","$16 tonight","0.533333312","stim/H020.png","65","65","0.566666644","1","1","2","1","1","2","0","0","1","2","3","2","2","3","4","3","4","2","3","4","2","3","3","2","1","2","2","4","0","1","0","2","3","1","1","1","0","2","2","0","0","1","2","2","1","0","1","agree","509","","","","","","","","<div style=""font-size:60px;"">?</div>","65","21","1","0.5"
"image-keyboard-response","83","2935857","0.0-22.0-0.21","4b42tq65fqtq50h","1","616b2558cedf0fecc3464156","21","195","5.11.","Male","Black or African American ","No   ","High School ","Yes, but not at a university ","N/A","N/A","N/A","3","2","3","1","0","0:30","0:00","7:00","3:30","0:00","00:00","00:00","07:00","03:00","00:00","08:30","00:00","06:00","3:30","00:00","00:30","00:30","00:00","4","1","4","0","4","3","3","3","0","1","2","3","2","1","1","3","4","0","2","3","2","1","1","4","$85 in 14 days","$40 tonight","$67 tonight","$34 tonight","$15 tonight","$32 tonight","$83 tonight","$21 tonight","$48 tonight","$40 tonight","$25 tonight","$65 tonight","$55 in 10 days","$30 tonight","$53 tonight","$47 tonight","$70 in 20 days","$50 tonight","$70 in 35 days","$27 tonight","$16 tonight","0.533333312","stim/H020.png","65","65","0.566666644","1","1","2","1","1","2","0","0","1","2","3","2","2","3","4","3","4","2","3","4","2","3","3","2","1","2","2","4","0","1","0","2","3","1","1","1","0","2","2","0","0","1","2","2","1","0","1","agree","null","","","","","","","","stim/T130.png","null","","",""
"html-keyboard-response","84","2936219","0.0-22.0-1.21","4b42tq65fqtq50h","1","616b2558cedf0fecc3464156","21","195","5.11.","Male","Black or African American ","No   ","High School ","Yes, but not at a university ","N/A","N/A","N/A","3","2","3","1","0","0:30","0:00","7:00","3:30","0:00","00:00","00:00","07:00","03:00","00:00","08:30","00:00","06:00","3:30","00:00","00:30","00:30","00:00","4","1","4","0","4","3","3","3","0","1","2","3","2","1","1","3","4","0","2","3","2","1","1","4","$85 in 14 days","$40 tonight","$67 tonight","$34 tonight","$15 tonight","$32 tonight","$83 tonight","$21 tonight","$48 tonight","$40 tonight","$25 tonight","$65 tonight","$55 in 10 days","$30 tonight","$53 tonight","$47 tonight","$70 in 20 days","$50 tonight","$70 in 35 days","$27 tonight","$16 tonight","0.533333312","stim/H020.png","65","65","0.566666644","1","1","2","1","1","2","0","0","1","2","3","2","2","3","4","3","4","2","3","4","2","3","3","2","1","2","2","4","0","1","0","2","3","1","1","1","0","2","2","0","0","1","2","2","1","0","1","agree","361","","","","","","","","<div style=""font-size:60px;"">?</div>","65","22","1","0.5"
"image-keyboard-response","85","2937227","0.0-22.0-0.22","4b42tq65fqtq50h","1","616b2558cedf0fecc3464156","21","195","5.11.","Male","Black or African American ","No   ","High School ","Yes, but not at a university ","N/A","N/A","N/A","3","2","3","1","0","0:30","0:00","7:00","3:30","0:00","00:00","00:00","07:00","03:00","00:00","08:30","00:00","06:00","3:30","00:00","00:30","00:30","00:00","4","1","4","0","4","3","3","3","0","1","2","3","2","1","1","3","4","0","2","3","2","1","1","4","$85 in 14 days","$40 tonight","$67 tonight","$34 tonight","$15 tonight","$32 tonight","$83 tonight","$21 tonight","$48 tonight","$40 tonight","$25 tonight","$65 tonight","$55 in 10 days","$30 tonight","$53 tonight","$47 tonight","$70 in 20 days","$50 tonight","$70 in 35 days","$27 tonight","$16 tonight","0.533333312","stim/H020.png","65","65","0.566666644","1","1","2","1","1","2","0","0","1","2","3","2","2","3","4","3","4","2","3","4","2","3","3","2","1","2","2","4","0","1","0","2","3","1","1","1","0","2","2","0","0","1","2","2","1","0","1","agree","null","","","","","","","","stim/T020.png","null","","",""
