success,timeout,failed_images,failed_audio,failed_video,trial_type,trial_index,time_elapsed,internal_node_id,run_id,condition,recorded_at,source_code_version,ip,user_agent,device,browser,browser_version,platform,platform_version,subject,debrief,rt,url,response,view_history,responses,question_order,attractiveness,beauty,harmony,weight,img
true,false,[],[],[],preload,0,8032,0.0-0.0,17,1,2022-10-13 02:34:20,2047352bf9184260afd7af9ae9f812c9,143.59.217.184,Mozilla/5.0 (X11; Linux x86_64; rv:106.0) Gecko/20100101 Firefox/106.0,,Firefox,106.0,Linux,,bcnoequk,agree,,,,,,,,,,,
,,,,,external-html,1,1726006,0.0-1.0,17,1,2022-10-13 02:34:20,2047352bf9184260afd7af9ae9f812c9,143.59.217.184,Mozilla/5.0 (X11; Linux x86_64; rv:106.0) Gecko/20100101 Firefox/106.0,,Firefox,106.0,Linux,,bcnoequk,agree,1716991,consent.html,,,,,,,,,
,,,,,survey-text,2,1765473,0.0-2.0,17,1,2022-10-13 02:34:20,2047352bf9184260afd7af9ae9f812c9,143.59.217.184,Mozilla/5.0 (X11; Linux x86_64; rv:106.0) Gecko/20100101 Firefox/106.0,,Firefox,106.0,Linux,,bcnoequk,agree,39454,,"{""prolID"":""5d453e8723a5bb0001492546"",""age"":""28"",""weight"":""250"",""height"":""6.1"",""mh"":""N/A""}",,,,,,,,
,,,,,instructions,3,1866024,0.0-3.0,17,1,2022-10-13 02:34:20,2047352bf9184260afd7af9ae9f812c9,143.59.217.184,Mozilla/5.0 (X11; Linux x86_64; rv:106.0) Gecko/20100101 Firefox/106.0,,Firefox,106.0,Linux,,bcnoequk,agree,100547,,,"[{""page_index"":0,""viewing_time"":17359},{""page_index"":1,""viewing_time"":63062},{""page_index"":2,""viewing_time"":7155},{""page_index"":3,""viewing_time"":12971}]",,,,,,,
,,,,,multiple-slider,4,1911502,0.0-4.0-0.0,17,1,2022-10-13 02:34:20,2047352bf9184260afd7af9ae9f812c9,143.59.217.184,Mozilla/5.0 (X11; Linux x86_64; rv:106.0) Gecko/20100101 Firefox/106.0,,Firefox,106.0,Linux,,bcnoequk,agree,45467,,,,"{""attractiveness"":88,""beauty"":57,""weight"":26,""harmony"":100}","[0,1,3,2]",88,57,100,26,H100
,,,,,multiple-slider,5,1967486,0.0-4.0-1.0,17,1,2022-10-13 02:34:20,2047352bf9184260afd7af9ae9f812c9,143.59.217.184,Mozilla/5.0 (X11; Linux x86_64; rv:106.0) Gecko/20100101 Firefox/106.0,,Firefox,106.0,Linux,,bcnoequk,agree,55975,,,,"{""harmony"":56,""attractiveness"":45,""weight"":8,""beauty"":45}","[2,0,3,1]",45,45,56,8,H300
,,,,,multiple-slider,6,2003092,0.0-4.0-2.0,17,1,2022-10-13 02:34:20,2047352bf9184260afd7af9ae9f812c9,143.59.217.184,Mozilla/5.0 (X11; Linux x86_64; rv:106.0) Gecko/20100101 Firefox/106.0,,Firefox,106.0,Linux,,bcnoequk,agree,35595,,,,"{""weight"":16,""beauty"":65,""harmony"":75,""attractiveness"":76}","[3,1,2,0]",76,65,75,16,H230
,,,,,multiple-slider,7,2032597,0.0-4.0-3.0,17,1,2022-10-13 02:34:20,2047352bf9184260afd7af9ae9f812c9,143.59.217.184,Mozilla/5.0 (X11; Linux x86_64; rv:106.0) Gecko/20100101 Firefox/106.0,,Firefox,106.0,Linux,,bcnoequk,agree,29497,,,,"{""beauty"":9,""attractiveness"":21,""harmony"":40,""weight"":100}","[1,0,2,3]",21,9,40,100,T270
,,,,,multiple-slider,8,2061351,0.0-4.0-4.0,17,1,2022-10-13 02:34:20,2047352bf9184260afd7af9ae9f812c9,143.59.217.184,Mozilla/5.0 (X11; Linux x86_64; rv:106.0) Gecko/20100101 Firefox/106.0,,Firefox,106.0,Linux,,bcnoequk,agree,28743,,,,"{""weight"":44,""attractiveness"":81,""harmony"":100,""beauty"":87}","[3,0,2,1]",81,87,100,44,H040
,,,,,multiple-slider,9,2102344,0.0-4.0-5.0,17,1,2022-10-13 02:34:20,2047352bf9184260afd7af9ae9f812c9,143.59.217.184,Mozilla/5.0 (X11; Linux x86_64; rv:106.0) Gecko/20100101 Firefox/106.0,,Firefox,106.0,Linux,,bcnoequk,agree,40981,,,,"{""attractiveness"":72,""weight"":63,""beauty"":53,""harmony"":86}","[0,3,1,2]",72,53,86,63,T010
,,,,,multiple-slider,10,2141697,0.0-4.0-6.0,17,1,2022-10-13 02:34:20,2047352bf9184260afd7af9ae9f812c9,143.59.217.184,Mozilla/5.0 (X11; Linux x86_64; rv:106.0) Gecko/20100101 Firefox/106.0,,Firefox,106.0,Linux,,bcnoequk,agree,39341,,,,"{""weight"":96,""beauty"":24,""attractiveness"":52,""harmony"":62}","[3,1,0,2]",52,24,62,96,T190
,,,,,multiple-slider,11,2184561,0.0-4.0-7.0,17,1,2022-10-13 02:34:20,2047352bf9184260afd7af9ae9f812c9,143.59.217.184,Mozilla/5.0 (X11; Linux x86_64; rv:106.0) Gecko/20100101 Firefox/106.0,,Firefox,106.0,Linux,,bcnoequk,agree,42853,,,,"{""harmony"":86,""beauty"":67,""weight"":19,""attractiveness"":87}","[2,1,3,0]",87,67,86,19,H130
,,,,,multiple-slider,12,2222914,0.0-4.0-8.0,17,1,2022-10-13 02:34:20,2047352bf9184260afd7af9ae9f812c9,143.59.217.184,Mozilla/5.0 (X11; Linux x86_64; rv:106.0) Gecko/20100101 Firefox/106.0,,Firefox,106.0,Linux,,bcnoequk,agree,38341,,,,"{""beauty"":60,""weight"":58,""attractiveness"":59,""harmony"":100}","[1,3,0,2]",59,60,100,58,T090
,,,,,multiple-slider,13,2245262,0.0-4.0-9.0,17,1,2022-10-13 02:34:20,2047352bf9184260afd7af9ae9f812c9,143.59.217.184,Mozilla/5.0 (X11; Linux x86_64; rv:106.0) Gecko/20100101 Firefox/106.0,,Firefox,106.0,Linux,,bcnoequk,agree,22335,,,,"{""harmony"":100,""attractiveness"":92,""weight"":43,""beauty"":82}","[2,0,3,1]",92,82,100,43,H060
,,,,,multiple-slider,14,2271039,0.0-4.0-10.0,17,1,2022-10-13 02:34:20,2047352bf9184260afd7af9ae9f812c9,143.59.217.184,Mozilla/5.0 (X11; Linux x86_64; rv:106.0) Gecko/20100101 Firefox/106.0,,Firefox,106.0,Linux,,bcnoequk,agree,25762,,,,"{""beauty"":51,""weight"":51,""harmony"":94,""attractiveness"":59}","[1,3,2,0]",59,51,94,51,N000
,,,,,multiple-slider,15,2292342,0.0-4.0-11.0,17,1,2022-10-13 02:34:20,2047352bf9184260afd7af9ae9f812c9,143.59.217.184,Mozilla/5.0 (X11; Linux x86_64; rv:106.0) Gecko/20100101 Firefox/106.0,,Firefox,106.0,Linux,,bcnoequk,agree,21292,,,,"{""attractiveness"":71,""harmony"":93,""weight"":42,""beauty"":66}","[0,2,3,1]",71,66,93,42,H020
,,,,,multiple-slider,16,2321003,0.0-4.0-12.0,17,1,2022-10-13 02:34:20,2047352bf9184260afd7af9ae9f812c9,143.59.217.184,Mozilla/5.0 (X11; Linux x86_64; rv:106.0) Gecko/20100101 Firefox/106.0,,Firefox,106.0,Linux,,bcnoequk,agree,28649,,,,"{""attractiveness"":7,""harmony"":38,""weight"":98,""beauty"":15}","[0,2,3,1]",7,15,38,98,T280
,,,,,multiple-slider,17,2341566,0.0-4.0-13.0,17,1,2022-10-13 02:34:20,2047352bf9184260afd7af9ae9f812c9,143.59.217.184,Mozilla/5.0 (X11; Linux x86_64; rv:106.0) Gecko/20100101 Firefox/106.0,,Firefox,106.0,Linux,,bcnoequk,agree,20551,,,,"{""weight"":11,""harmony"":58,""attractiveness"":55,""beauty"":56}","[3,2,0,1]",55,56,58,11,H190
,,,,,multiple-slider,18,2468764,0.0-4.0-14.0,17,1,2022-10-13 02:34:20,2047352bf9184260afd7af9ae9f812c9,143.59.217.184,Mozilla/5.0 (X11; Linux x86_64; rv:106.0) Gecko/20100101 Firefox/106.0,,Firefox,106.0,Linux,,bcnoequk,agree,127182,,,,"{""harmony"":77,""attractiveness"":55,""beauty"":68,""weight"":70}","[2,0,1,3]",55,68,77,70,T150
,,,,,multiple-slider,19,2488232,0.0-4.0-15.0,17,1,2022-10-13 02:34:20,2047352bf9184260afd7af9ae9f812c9,143.59.217.184,Mozilla/5.0 (X11; Linux x86_64; rv:106.0) Gecko/20100101 Firefox/106.0,,Firefox,106.0,Linux,,bcnoequk,agree,19457,,,,"{""beauty"":68,""weight"":28,""harmony"":61,""attractiveness"":77}","[1,3,2,0]",77,68,61,28,H110
,,,,,multiple-slider,20,2502674,0.0-4.0-16.0,17,1,2022-10-13 02:34:20,2047352bf9184260afd7af9ae9f812c9,143.59.217.184,Mozilla/5.0 (X11; Linux x86_64; rv:106.0) Gecko/20100101 Firefox/106.0,,Firefox,106.0,Linux,,bcnoequk,agree,14430,,,,"{""harmony"":89,""weight"":61,""attractiveness"":62,""beauty"":56}","[2,3,0,1]",62,56,89,61,T050
,,,,,multiple-slider,21,2517149,0.0-4.0-17.0,17,1,2022-10-13 02:34:20,2047352bf9184260afd7af9ae9f812c9,143.59.217.184,Mozilla/5.0 (X11; Linux x86_64; rv:106.0) Gecko/20100101 Firefox/106.0,,Firefox,106.0,Linux,,bcnoequk,agree,14461,,,,"{""attractiveness"":58,""beauty"":53,""harmony"":97,""weight"":44}","[0,1,2,3]",58,53,97,44,T020
,,,,,multiple-slider,22,2547352,0.0-4.0-18.0,17,1,2022-10-13 02:34:20,2047352bf9184260afd7af9ae9f812c9,143.59.217.184,Mozilla/5.0 (X11; Linux x86_64; rv:106.0) Gecko/20100101 Firefox/106.0,,Firefox,106.0,Linux,,bcnoequk,agree,30190,,,,"{""harmony"":58,""weight"":8,""beauty"":57,""attractiveness"":57}","[2,3,1,0]",57,57,58,8,H250
,,,,,multiple-slider,23,2566890,0.0-4.0-19.0,17,1,2022-10-13 02:34:20,2047352bf9184260afd7af9ae9f812c9,143.59.217.184,Mozilla/5.0 (X11; Linux x86_64; rv:106.0) Gecko/20100101 Firefox/106.0,,Firefox,106.0,Linux,,bcnoequk,agree,19520,,,,"{""harmony"":70,""attractiveness"":45,""beauty"":48,""weight"":64}","[2,0,1,3]",45,48,70,64,T140
,,,,,multiple-slider,24,2585561,0.0-4.0-20.0,17,1,2022-10-13 02:34:20,2047352bf9184260afd7af9ae9f812c9,143.59.217.184,Mozilla/5.0 (X11; Linux x86_64; rv:106.0) Gecko/20100101 Firefox/106.0,,Firefox,106.0,Linux,,bcnoequk,agree,18657,,,,"{""weight"":48,""harmony"":94,""beauty"":64,""attractiveness"":64}","[3,2,1,0]",64,64,94,48,T070
,,,,,multiple-slider,25,2600640,0.0-4.0-21.0,17,1,2022-10-13 02:34:20,2047352bf9184260afd7af9ae9f812c9,143.59.217.184,Mozilla/5.0 (X11; Linux x86_64; rv:106.0) Gecko/20100101 Firefox/106.0,,Firefox,106.0,Linux,,bcnoequk,agree,15064,,,,"{""attractiveness"":57,""weight"":23,""beauty"":56,""harmony"":78}","[0,3,1,2]",57,56,78,23,H210
,,,,,multiple-slider,26,2615388,0.0-4.0-22.0,17,1,2022-10-13 02:34:20,2047352bf9184260afd7af9ae9f812c9,143.59.217.184,Mozilla/5.0 (X11; Linux x86_64; rv:106.0) Gecko/20100101 Firefox/106.0,,Firefox,106.0,Linux,,bcnoequk,agree,14733,,,,"{""attractiveness"":45,""beauty"":44,""weight"":83,""harmony"":25}","[0,1,3,2]",45,44,25,83,T210
,,,,,multiple-slider,27,2627358,0.0-4.0-23.0,17,1,2022-10-13 02:34:20,2047352bf9184260afd7af9ae9f812c9,143.59.217.184,Mozilla/5.0 (X11; Linux x86_64; rv:106.0) Gecko/20100101 Firefox/106.0,,Firefox,106.0,Linux,,bcnoequk,agree,11954,,,,"{""harmony"":70,""weight"":16,""beauty"":56,""attractiveness"":55}","[2,3,1,0]",55,56,70,16,H220
,,,,,multiple-slider,28,2641529,0.0-4.0-24.0,17,1,2022-10-13 02:34:20,2047352bf9184260afd7af9ae9f812c9,143.59.217.184,Mozilla/5.0 (X11; Linux x86_64; rv:106.0) Gecko/20100101 Firefox/106.0,,Firefox,106.0,Linux,,bcnoequk,agree,14156,,,,"{""beauty"":62,""harmony"":85,""attractiveness"":71,""weight"":21}","[1,2,0,3]",71,62,85,21,H150
,,,,,multiple-slider,29,2657135,0.0-4.0-25.0,17,1,2022-10-13 02:34:20,2047352bf9184260afd7af9ae9f812c9,143.59.217.184,Mozilla/5.0 (X11; Linux x86_64; rv:106.0) Gecko/20100101 Firefox/106.0,,Firefox,106.0,Linux,,bcnoequk,agree,15590,,,,"{""weight"":63,""harmony"":91,""beauty"":46,""attractiveness"":49}","[3,2,1,0]",49,46,91,63,T120
,,,,,multiple-slider,30,2678559,0.0-4.0-26.0,17,1,2022-10-13 02:34:20,2047352bf9184260afd7af9ae9f812c9,143.59.217.184,Mozilla/5.0 (X11; Linux x86_64; rv:106.0) Gecko/20100101 Firefox/106.0,,Firefox,106.0,Linux,,bcnoequk,agree,21407,,,,"{""harmony"":97,""weight"":85,""beauty"":52,""attractiveness"":57}","[2,3,1,0]",57,52,97,85,T130
,,,,,multiple-slider,31,2696352,0.0-4.0-27.0,17,1,2022-10-13 02:34:20,2047352bf9184260afd7af9ae9f812c9,143.59.217.184,Mozilla/5.0 (X11; Linux x86_64; rv:106.0) Gecko/20100101 Firefox/106.0,,Firefox,106.0,Linux,,bcnoequk,agree,17777,,,,"{""attractiveness"":60,""beauty"":58,""weight"":17,""harmony"":79}","[0,1,3,2]",60,58,79,17,H160
,,,,,multiple-slider,32,2713377,0.0-4.0-28.0,17,1,2022-10-13 02:34:20,2047352bf9184260afd7af9ae9f812c9,143.59.217.184,Mozilla/5.0 (X11; Linux x86_64; rv:106.0) Gecko/20100101 Firefox/106.0,,Firefox,106.0,Linux,,bcnoequk,agree,17005,,,,"{""attractiveness"":58,""weight"":6,""beauty"":57,""harmony"":43}","[0,3,1,2]",58,57,43,6,H240
,,,,,multiple-slider,33,2729385,0.0-4.0-29.0,17,1,2022-10-13 02:34:20,2047352bf9184260afd7af9ae9f812c9,143.59.217.184,Mozilla/5.0 (X11; Linux x86_64; rv:106.0) Gecko/20100101 Firefox/106.0,,Firefox,106.0,Linux,,bcnoequk,agree,15992,,,,"{""attractiveness"":57,""beauty"":57,""harmony"":83,""weight"":68}","[0,1,2,3]",57,57,83,68,T100
,,,,,multiple-slider,34,2745720,0.0-4.0-30.0,17,1,2022-10-13 02:34:20,2047352bf9184260afd7af9ae9f812c9,143.59.217.184,Mozilla/5.0 (X11; Linux x86_64; rv:106.0) Gecko/20100101 Firefox/106.0,,Firefox,106.0,Linux,,bcnoequk,agree,16318,,,,"{""harmony"":66,""beauty"":58,""attractiveness"":58,""weight"":82}","[2,1,0,3]",58,58,66,82,T200
,,,,,multiple-slider,35,2762555,0.0-4.0-31.0,17,1,2022-10-13 02:34:20,2047352bf9184260afd7af9ae9f812c9,143.59.217.184,Mozilla/5.0 (X11; Linux x86_64; rv:106.0) Gecko/20100101 Firefox/106.0,,Firefox,106.0,Linux,,bcnoequk,agree,16816,,,,"{""weight"":43,""attractiveness"":72,""beauty"":73,""harmony"":98}","[3,0,1,2]",72,73,98,43,H010
,,,,,multiple-slider,36,2776504,0.0-4.0-32.0,17,1,2022-10-13 02:34:20,2047352bf9184260afd7af9ae9f812c9,143.59.217.184,Mozilla/5.0 (X11; Linux x86_64; rv:106.0) Gecko/20100101 Firefox/106.0,,Firefox,106.0,Linux,,bcnoequk,agree,13930,,,,"{""attractiveness"":82,""harmony"":100,""weight"":38,""beauty"":82}","[0,2,3,1]",82,82,100,38,H070
,,,,,multiple-slider,37,2795856,0.0-4.0-33.0,17,1,2022-10-13 02:34:20,2047352bf9184260afd7af9ae9f812c9,143.59.217.184,Mozilla/5.0 (X11; Linux x86_64; rv:106.0) Gecko/20100101 Firefox/106.0,,Firefox,106.0,Linux,,bcnoequk,agree,19331,,,,"{""harmony"":96,""attractiveness"":79,""weight"":38,""beauty"":76}","[2,0,3,1]",79,76,96,38,H030
,,,,,multiple-slider,38,2822051,0.0-4.0-34.0,17,1,2022-10-13 02:34:20,2047352bf9184260afd7af9ae9f812c9,143.59.217.184,Mozilla/5.0 (X11; Linux x86_64; rv:106.0) Gecko/20100101 Firefox/106.0,,Firefox,106.0,Linux,,bcnoequk,agree,26175,,,,"{""attractiveness"":71,""harmony"":75,""weight"":22,""beauty"":58}","[0,2,3,1]",71,58,75,22,H080
,,,,,multiple-slider,39,2834973,0.0-4.0-35.0,17,1,2022-10-13 02:34:20,2047352bf9184260afd7af9ae9f812c9,143.59.217.184,Mozilla/5.0 (X11; Linux x86_64; rv:106.0) Gecko/20100101 Firefox/106.0,,Firefox,106.0,Linux,,bcnoequk,agree,12901,,,,"{""harmony"":29,""weight"":98,""attractiveness"":17,""beauty"":14}","[2,3,0,1]",17,14,29,98,T290
,,,,,multiple-slider,40,2846496,0.0-4.0-36.0,17,1,2022-10-13 02:34:20,2047352bf9184260afd7af9ae9f812c9,143.59.217.184,Mozilla/5.0 (X11; Linux x86_64; rv:106.0) Gecko/20100101 Firefox/106.0,,Firefox,106.0,Linux,,bcnoequk,agree,11504,,,,"{""attractiveness"":55,""harmony"":42,""beauty"":54,""weight"":10}","[0,2,1,3]",55,54,42,10,H170
,,,,,multiple-slider,41,2859538,0.0-4.0-37.0,17,1,2022-10-13 02:34:20,2047352bf9184260afd7af9ae9f812c9,143.59.217.184,Mozilla/5.0 (X11; Linux x86_64; rv:106.0) Gecko/20100101 Firefox/106.0,,Firefox,106.0,Linux,,bcnoequk,agree,13019,,,,"{""beauty"":47,""harmony"":36,""attractiveness"":44,""weight"":7}","[1,2,0,3]",44,47,36,7,H280
,,,,,multiple-slider,42,2879492,0.0-4.0-38.0,17,1,2022-10-13 02:34:20,2047352bf9184260afd7af9ae9f812c9,143.59.217.184,Mozilla/5.0 (X11; Linux x86_64; rv:106.0) Gecko/20100101 Firefox/106.0,,Firefox,106.0,Linux,,bcnoequk,agree,19934,,,,"{""harmony"":69,""attractiveness"":77,""weight"":25,""beauty"":72}","[2,0,3,1]",77,72,69,25,H120
,,,,,multiple-slider,43,2901144,0.0-4.0-39.0,17,1,2022-10-13 02:34:20,2047352bf9184260afd7af9ae9f812c9,143.59.217.184,Mozilla/5.0 (X11; Linux x86_64; rv:106.0) Gecko/20100101 Firefox/106.0,,Firefox,106.0,Linux,,bcnoequk,agree,21633,,,,"{""attractiveness"":58,""beauty"":59,""weight"":27,""harmony"":61}","[0,1,3,2]",58,59,61,27,H200
,,,,,multiple-slider,44,2917838,0.0-4.0-40.0,17,1,2022-10-13 02:34:20,2047352bf9184260afd7af9ae9f812c9,143.59.217.184,Mozilla/5.0 (X11; Linux x86_64; rv:106.0) Gecko/20100101 Firefox/106.0,,Firefox,106.0,Linux,,bcnoequk,agree,16673,,,,"{""harmony"":82,""beauty"":67,""attractiveness"":73,""weight"":28}","[2,1,0,3]",73,67,82,28,H090
,,,,,multiple-slider,45,2943138,0.0-4.0-41.0,17,1,2022-10-13 02:34:20,2047352bf9184260afd7af9ae9f812c9,143.59.217.184,Mozilla/5.0 (X11; Linux x86_64; rv:106.0) Gecko/20100101 Firefox/106.0,,Firefox,106.0,Linux,,bcnoequk,agree,25278,,,,"{""beauty"":56,""attractiveness"":56,""harmony"":36,""weight"":62}","[1,0,2,3]",56,56,36,62,T160
,,,,,multiple-slider,46,2965963,0.0-4.0-42.0,17,1,2022-10-13 02:34:20,2047352bf9184260afd7af9ae9f812c9,143.59.217.184,Mozilla/5.0 (X11; Linux x86_64; rv:106.0) Gecko/20100101 Firefox/106.0,,Firefox,106.0,Linux,,bcnoequk,agree,22801,,,,"{""harmony"":42,""attractiveness"":53,""beauty"":54,""weight"":10}","[2,0,1,3]",53,54,42,10,H260
,,,,,multiple-slider,47,2981024,0.0-4.0-43.0,17,1,2022-10-13 02:34:20,2047352bf9184260afd7af9ae9f812c9,143.59.217.184,Mozilla/5.0 (X11; Linux x86_64; rv:106.0) Gecko/20100101 Firefox/106.0,,Firefox,106.0,Linux,,bcnoequk,agree,15040,,,,"{""beauty"":36,""weight"":97,""harmony"":37,""attractiveness"":33}","[1,3,2,0]",33,36,37,97,T250
,,,,,multiple-slider,48,3002711,0.0-4.0-44.0,17,1,2022-10-13 02:34:20,2047352bf9184260afd7af9ae9f812c9,143.59.217.184,Mozilla/5.0 (X11; Linux x86_64; rv:106.0) Gecko/20100101 Firefox/106.0,,Firefox,106.0,Linux,,bcnoequk,agree,21661,,,,"{""beauty"":54,""attractiveness"":53,""harmony"":83,""weight"":65}","[1,0,2,3]",53,54,83,65,T170
,,,,,multiple-slider,49,3034681,0.0-4.0-45.0,17,1,2022-10-13 02:34:20,2047352bf9184260afd7af9ae9f812c9,143.59.217.184,Mozilla/5.0 (X11; Linux x86_64; rv:106.0) Gecko/20100101 Firefox/106.0,,Firefox,106.0,Linux,,bcnoequk,agree,31947,,,,"{""weight"":47,""beauty"":54,""harmony"":87,""attractiveness"":52}","[3,1,2,0]",52,54,87,47,T060
,,,,,multiple-slider,50,3047880,0.0-4.0-46.0,17,1,2022-10-13 02:34:20,2047352bf9184260afd7af9ae9f812c9,143.59.217.184,Mozilla/5.0 (X11; Linux x86_64; rv:106.0) Gecko/20100101 Firefox/106.0,,Firefox,106.0,Linux,,bcnoequk,agree,13175,,,,"{""beauty"":71,""harmony"":94,""weight"":34,""attractiveness"":81}","[1,2,3,0]",81,71,94,34,H050
,,,,,multiple-slider,51,3069211,0.0-4.0-47.0,17,1,2022-10-13 02:34:20,2047352bf9184260afd7af9ae9f812c9,143.59.217.184,Mozilla/5.0 (X11; Linux x86_64; rv:106.0) Gecko/20100101 Firefox/106.0,,Firefox,106.0,Linux,,bcnoequk,agree,21308,,,,"{""beauty"":56,""attractiveness"":63,""weight"":59,""harmony"":76}","[1,0,3,2]",63,56,76,59,T080
,,,,,multiple-slider,52,3081896,0.0-4.0-48.0,17,1,2022-10-13 02:34:20,2047352bf9184260afd7af9ae9f812c9,143.59.217.184,Mozilla/5.0 (X11; Linux x86_64; rv:106.0) Gecko/20100101 Firefox/106.0,,Firefox,106.0,Linux,,bcnoequk,agree,12660,,,,"{""attractiveness"":56,""beauty"":54,""harmony"":61,""weight"":24}","[0,1,2,3]",56,54,61,24,H140
,,,,,multiple-slider,53,3103525,0.0-4.0-49.0,17,1,2022-10-13 02:34:20,2047352bf9184260afd7af9ae9f812c9,143.59.217.184,Mozilla/5.0 (X11; Linux x86_64; rv:106.0) Gecko/20100101 Firefox/106.0,,Firefox,106.0,Linux,,bcnoequk,agree,21605,,,,"{""harmony"":53,""beauty"":56,""weight"":54,""attractiveness"":50}","[2,1,3,0]",50,56,53,54,T180
,,,,,multiple-slider,54,3136274,0.0-4.0-50.0,17,1,2022-10-13 02:34:20,2047352bf9184260afd7af9ae9f812c9,143.59.217.184,Mozilla/5.0 (X11; Linux x86_64; rv:106.0) Gecko/20100101 Firefox/106.0,,Firefox,106.0,Linux,,bcnoequk,agree,32724,,,,"{""harmony"":43,""attractiveness"":43,""beauty"":43,""weight"":55}","[2,0,1,3]",43,43,43,55,T240
,,,,,multiple-slider,55,3158858,0.0-4.0-51.0,17,1,2022-10-13 02:34:20,2047352bf9184260afd7af9ae9f812c9,143.59.217.184,Mozilla/5.0 (X11; Linux x86_64; rv:106.0) Gecko/20100101 Firefox/106.0,,Firefox,106.0,Linux,,bcnoequk,agree,22558,,,,"{""weight"":28,""attractiveness"":52,""harmony"":65,""beauty"":55}","[3,0,2,1]",52,55,65,28,H180
,,,,,multiple-slider,56,3194803,0.0-4.0-52.0,17,1,2022-10-13 02:34:20,2047352bf9184260afd7af9ae9f812c9,143.59.217.184,Mozilla/5.0 (X11; Linux x86_64; rv:106.0) Gecko/20100101 Firefox/106.0,,Firefox,106.0,Linux,,bcnoequk,agree,35921,,,,"{""attractiveness"":48,""beauty"":46,""weight"":15,""harmony"":51}","[0,1,3,2]",48,46,51,15,H270
,,,,,multiple-slider,57,3216296,0.0-4.0-53.0,17,1,2022-10-13 02:34:20,2047352bf9184260afd7af9ae9f812c9,143.59.217.184,Mozilla/5.0 (X11; Linux x86_64; rv:106.0) Gecko/20100101 Firefox/106.0,,Firefox,106.0,Linux,,bcnoequk,agree,21467,,,,"{""harmony"":76,""attractiveness"":68,""beauty"":65,""weight"":22}","[2,0,1,3]",68,65,76,22,H290
,,,,,multiple-slider,58,3239514,0.0-4.0-54.0,17,1,2022-10-13 02:34:20,2047352bf9184260afd7af9ae9f812c9,143.59.217.184,Mozilla/5.0 (X11; Linux x86_64; rv:106.0) Gecko/20100101 Firefox/106.0,,Firefox,106.0,Linux,,bcnoequk,agree,23191,,,,"{""beauty"":43,""attractiveness"":43,""weight"":94,""harmony"":42}","[1,0,3,2]",43,43,42,94,T260
,,,,,multiple-slider,59,3254474,0.0-4.0-55.0,17,1,2022-10-13 02:34:20,2047352bf9184260afd7af9ae9f812c9,143.59.217.184,Mozilla/5.0 (X11; Linux x86_64; rv:106.0) Gecko/20100101 Firefox/106.0,,Firefox,106.0,Linux,,bcnoequk,agree,14933,,,,"{""attractiveness"":40,""weight"":94,""harmony"":42,""beauty"":44}","[0,3,2,1]",40,44,42,94,T230
,,,,,multiple-slider,60,3287752,0.0-4.0-56.0,17,1,2022-10-13 02:34:20,2047352bf9184260afd7af9ae9f812c9,143.59.217.184,Mozilla/5.0 (X11; Linux x86_64; rv:106.0) Gecko/20100101 Firefox/106.0,,Firefox,106.0,Linux,,bcnoequk,agree,33250,,,,"{""beauty"":54,""weight"":48,""harmony"":81,""attractiveness"":65}","[1,3,2,0]",65,54,81,48,T110
,,,,,multiple-slider,61,3303949,0.0-4.0-57.0,17,1,2022-10-13 02:34:20,2047352bf9184260afd7af9ae9f812c9,143.59.217.184,Mozilla/5.0 (X11; Linux x86_64; rv:106.0) Gecko/20100101 Firefox/106.0,,Firefox,106.0,Linux,,bcnoequk,agree,16170,,,,"{""weight"":96,""beauty"":42,""attractiveness"":43,""harmony"":21}","[3,1,0,2]",43,42,21,96,T300
,,,,,multiple-slider,62,3314360,0.0-4.0-58.0,17,1,2022-10-13 02:34:20,2047352bf9184260afd7af9ae9f812c9,143.59.217.184,Mozilla/5.0 (X11; Linux x86_64; rv:106.0) Gecko/20100101 Firefox/106.0,,Firefox,106.0,Linux,,bcnoequk,agree,10382,,,,"{""weight"":52,""harmony"":91,""attractiveness"":68,""beauty"":61}","[3,2,0,1]",68,61,91,52,T040
,,,,,multiple-slider,63,3327370,0.0-4.0-59.0,17,1,2022-10-13 02:34:20,2047352bf9184260afd7af9ae9f812c9,143.59.217.184,Mozilla/5.0 (X11; Linux x86_64; rv:106.0) Gecko/20100101 Firefox/106.0,,Firefox,106.0,Linux,,bcnoequk,agree,12983,,,,"{""weight"":68,""attractiveness"":55,""beauty"":54,""harmony"":58}","[3,0,1,2]",55,54,58,68,T220
,,,,,multiple-slider,64,3342684,0.0-4.0-60.0,17,1,2022-10-13 02:34:20,2047352bf9184260afd7af9ae9f812c9,143.59.217.184,Mozilla/5.0 (X11; Linux x86_64; rv:106.0) Gecko/20100101 Firefox/106.0,,Firefox,106.0,Linux,,bcnoequk,agree,15277,,,,"{""weight"":48,""harmony"":94,""beauty"":74,""attractiveness"":78}","[3,2,1,0]",78,74,94,48,T030
,,,,,external-html,65,3387621,0.0-5.0,17,1,2022-10-13 02:34:20,2047352bf9184260afd7af9ae9f812c9,143.59.217.184,Mozilla/5.0 (X11; Linux x86_64; rv:106.0) Gecko/20100101 Firefox/106.0,,Firefox,106.0,Linux,,bcnoequk,agree,44380,debriefing.html,,,,,,,,,
true,false,[],[],[],preload,0,1765,0.0-0.0,18,1,2022-10-13 02:46:47,2047352bf9184260afd7af9ae9f812c9,73.48.161.94,Mozilla/5.0 (Macintosh; Intel Mac OS X 10.13; rv:102.0) Gecko/20100101 Firefox/102.0,Macintosh,Firefox,102.0,OS X,10.13,8jy8tvjy,agree,,,,,,,,,,,
,,,,,external-html,1,4574,0.0-1.0,18,1,2022-10-13 02:46:47,2047352bf9184260afd7af9ae9f812c9,73.48.161.94,Mozilla/5.0 (Macintosh; Intel Mac OS X 10.13; rv:102.0) Gecko/20100101 Firefox/102.0,Macintosh,Firefox,102.0,OS X,10.13,8jy8tvjy,agree,2425,consent.html,,,,,,,,,
,,,,,survey-text,2,25324,0.0-2.0,18,1,2022-10-13 02:46:47,2047352bf9184260afd7af9ae9f812c9,73.48.161.94,Mozilla/5.0 (Macintosh; Intel Mac OS X 10.13; rv:102.0) Gecko/20100101 Firefox/102.0,Macintosh,Firefox,102.0,OS X,10.13,8jy8tvjy,agree,20736,,"{""prolID"":""6315ca88789bafad9f586f2b"",""age"":""23"",""weight"":""160"",""height"":""5.8"",""mh"":""n/a""}",,,,,,,,
,,,,,instructions,3,32141,0.0-3.0,18,1,2022-10-13 02:46:47,2047352bf9184260afd7af9ae9f812c9,73.48.161.94,Mozilla/5.0 (Macintosh; Intel Mac OS X 10.13; rv:102.0) Gecko/20100101 Firefox/102.0,Macintosh,Firefox,102.0,OS X,10.13,8jy8tvjy,agree,6811,,,"[{""page_index"":0,""viewing_time"":1934},{""page_index"":1,""viewing_time"":1795},{""page_index"":2,""viewing_time"":1823},{""page_index"":3,""viewing_time"":1259}]",,,,,,,
,,,,,multiple-slider,4,41000,0.0-4.0-0.0,18,1,2022-10-13 02:46:47,2047352bf9184260afd7af9ae9f812c9,73.48.161.94,Mozilla/5.0 (Macintosh; Intel Mac OS X 10.13; rv:102.0) Gecko/20100101 Firefox/102.0,Macintosh,Firefox,102.0,OS X,10.13,8jy8tvjy,agree,8852,,,,"{""beauty"":56,""attractiveness"":57,""harmony"":73,""weight"":55}","[1,0,2,3]",57,56,73,55,T090
,,,,,multiple-slider,5,49790,0.0-4.0-1.0,18,1,2022-10-13 02:46:47,2047352bf9184260afd7af9ae9f812c9,73.48.161.94,Mozilla/5.0 (Macintosh; Intel Mac OS X 10.13; rv:102.0) Gecko/20100101 Firefox/102.0,Macintosh,Firefox,102.0,OS X,10.13,8jy8tvjy,agree,8781,,,,"{""attractiveness"":63,""harmony"":58,""beauty"":58,""weight"":40}","[0,2,1,3]",63,58,58,40,H030
,,,,,multiple-slider,6,56291,0.0-4.0-2.0,18,1,2022-10-13 02:46:47,2047352bf9184260afd7af9ae9f812c9,73.48.161.94,Mozilla/5.0 (Macintosh; Intel Mac OS X 10.13; rv:102.0) Gecko/20100101 Firefox/102.0,Macintosh,Firefox,102.0,OS X,10.13,8jy8tvjy,agree,6491,,,,"{""beauty"":59,""attractiveness"":68,""harmony"":60,""weight"":18}","[1,0,2,3]",68,59,60,18,H190
,,,,,multiple-slider,7,64510,0.0-4.0-3.0,18,1,2022-10-13 02:46:47,2047352bf9184260afd7af9ae9f812c9,73.48.161.94,Mozilla/5.0 (Macintosh; Intel Mac OS X 10.13; rv:102.0) Gecko/20100101 Firefox/102.0,Macintosh,Firefox,102.0,OS X,10.13,8jy8tvjy,agree,8211,,,,"{""beauty"":68,""weight"":18,""harmony"":69,""attractiveness"":62}","[1,3,2,0]",62,68,69,18,H170
,,,,,multiple-slider,8,71486,0.0-4.0-4.0,18,1,2022-10-13 02:46:47,2047352bf9184260afd7af9ae9f812c9,73.48.161.94,Mozilla/5.0 (Macintosh; Intel Mac OS X 10.13; rv:102.0) Gecko/20100101 Firefox/102.0,Macintosh,Firefox,102.0,OS X,10.13,8jy8tvjy,agree,6967,,,,"{""attractiveness"":74,""beauty"":71,""harmony"":61,""weight"":16}","[0,1,2,3]",74,71,61,16,H210
,,,,,multiple-slider,9,77823,0.0-4.0-5.0,18,1,2022-10-13 02:46:47,2047352bf9184260afd7af9ae9f812c9,73.48.161.94,Mozilla/5.0 (Macintosh; Intel Mac OS X 10.13; rv:102.0) Gecko/20100101 Firefox/102.0,Macintosh,Firefox,102.0,OS X,10.13,8jy8tvjy,agree,6324,,,,"{""attractiveness"":57,""beauty"":60,""weight"":81,""harmony"":74}","[0,1,3,2]",57,60,74,81,T100
,,,,,multiple-slider,10,82875,0.0-4.0-6.0,18,1,2022-10-13 02:46:47,2047352bf9184260afd7af9ae9f812c9,73.48.161.94,Mozilla/5.0 (Macintosh; Intel Mac OS X 10.13; rv:102.0) Gecko/20100101 Firefox/102.0,Macintosh,Firefox,102.0,OS X,10.13,8jy8tvjy,agree,5041,,,,"{""beauty"":69,""harmony"":72,""attractiveness"":67,""weight"":18}","[1,2,0,3]",67,69,72,18,H140
,,,,,multiple-slider,11,88136,0.0-4.0-7.0,18,1,2022-10-13 02:46:47,2047352bf9184260afd7af9ae9f812c9,73.48.161.94,Mozilla/5.0 (Macintosh; Intel Mac OS X 10.13; rv:102.0) Gecko/20100101 Firefox/102.0,Macintosh,Firefox,102.0,OS X,10.13,8jy8tvjy,agree,5251,,,,"{""attractiveness"":73,""harmony"":70,""beauty"":63,""weight"":11}","[0,2,1,3]",73,63,70,11,H200
,,,,,multiple-slider,12,95062,0.0-4.0-8.0,18,1,2022-10-13 02:46:47,2047352bf9184260afd7af9ae9f812c9,73.48.161.94,Mozilla/5.0 (Macintosh; Intel Mac OS X 10.13; rv:102.0) Gecko/20100101 Firefox/102.0,Macintosh,Firefox,102.0,OS X,10.13,8jy8tvjy,agree,6917,,,,"{""weight"":4,""harmony"":35,""attractiveness"":58,""beauty"":59}","[3,2,0,1]",58,59,35,4,H280
,,,,,multiple-slider,13,101054,0.0-4.0-9.0,18,1,2022-10-13 02:46:47,2047352bf9184260afd7af9ae9f812c9,73.48.161.94,Mozilla/5.0 (Macintosh; Intel Mac OS X 10.13; rv:102.0) Gecko/20100101 Firefox/102.0,Macintosh,Firefox,102.0,OS X,10.13,8jy8tvjy,agree,5986,,,,"{""attractiveness"":60,""beauty"":38,""harmony"":59,""weight"":100}","[0,1,2,3]",60,38,59,100,T190
,,,,,multiple-slider,14,108222,0.0-4.0-10.0,18,1,2022-10-13 02:46:47,2047352bf9184260afd7af9ae9f812c9,73.48.161.94,Mozilla/5.0 (Macintosh; Intel Mac OS X 10.13; rv:102.0) Gecko/20100101 Firefox/102.0,Macintosh,Firefox,102.0,OS X,10.13,8jy8tvjy,agree,7160,,,,"{""beauty"":43,""attractiveness"":63,""weight"":0,""harmony"":35}","[1,0,3,2]",63,43,35,0,H250
,,,,,multiple-slider,15,113245,0.0-4.0-11.0,18,1,2022-10-13 02:46:47,2047352bf9184260afd7af9ae9f812c9,73.48.161.94,Mozilla/5.0 (Macintosh; Intel Mac OS X 10.13; rv:102.0) Gecko/20100101 Firefox/102.0,Macintosh,Firefox,102.0,OS X,10.13,8jy8tvjy,agree,5014,,,,"{""harmony"":66,""attractiveness"":62,""beauty"":61,""weight"":63}","[2,0,1,3]",62,61,66,63,T070
,,,,,multiple-slider,16,120146,0.0-4.0-12.0,18,1,2022-10-13 02:46:47,2047352bf9184260afd7af9ae9f812c9,73.48.161.94,Mozilla/5.0 (Macintosh; Intel Mac OS X 10.13; rv:102.0) Gecko/20100101 Firefox/102.0,Macintosh,Firefox,102.0,OS X,10.13,8jy8tvjy,agree,6892,,,,"{""beauty"":40,""harmony"":38,""attractiveness"":42,""weight"":100}","[1,2,0,3]",42,40,38,100,T250
,,,,,multiple-slider,17,127468,0.0-4.0-13.0,18,1,2022-10-13 02:46:47,2047352bf9184260afd7af9ae9f812c9,73.48.161.94,Mozilla/5.0 (Macintosh; Intel Mac OS X 10.13; rv:102.0) Gecko/20100101 Firefox/102.0,Macintosh,Firefox,102.0,OS X,10.13,8jy8tvjy,agree,7314,,,,"{""harmony"":60,""beauty"":59,""attractiveness"":59,""weight"":58}","[2,1,0,3]",59,59,60,58,H010
,,,,,multiple-slider,18,133758,0.0-4.0-14.0,18,1,2022-10-13 02:46:47,2047352bf9184260afd7af9ae9f812c9,73.48.161.94,Mozilla/5.0 (Macintosh; Intel Mac OS X 10.13; rv:102.0) Gecko/20100101 Firefox/102.0,Macintosh,Firefox,102.0,OS X,10.13,8jy8tvjy,agree,6280,,,,"{""weight"":100,""harmony"":10,""attractiveness"":41,""beauty"":42}","[3,2,0,1]",41,42,10,100,T280
,,,,,multiple-slider,19,138545,0.0-4.0-15.0,18,1,2022-10-13 02:46:47,2047352bf9184260afd7af9ae9f812c9,73.48.161.94,Mozilla/5.0 (Macintosh; Intel Mac OS X 10.13; rv:102.0) Gecko/20100101 Firefox/102.0,Macintosh,Firefox,102.0,OS X,10.13,8jy8tvjy,agree,4779,,,,"{""weight"":35,""attractiveness"":64,""harmony"":60,""beauty"":58}","[3,0,2,1]",64,58,60,35,H130
,,,,,multiple-slider,20,145012,0.0-4.0-16.0,18,1,2022-10-13 02:46:47,2047352bf9184260afd7af9ae9f812c9,73.48.161.94,Mozilla/5.0 (Macintosh; Intel Mac OS X 10.13; rv:102.0) Gecko/20100101 Firefox/102.0,Macintosh,Firefox,102.0,OS X,10.13,8jy8tvjy,agree,6455,,,,"{""weight"":30,""beauty"":62,""harmony"":52,""attractiveness"":37}","[3,1,2,0]",37,62,52,30,H110
,,,,,multiple-slider,21,150956,0.0-4.0-17.0,18,1,2022-10-13 02:46:47,2047352bf9184260afd7af9ae9f812c9,73.48.161.94,Mozilla/5.0 (Macintosh; Intel Mac OS X 10.13; rv:102.0) Gecko/20100101 Firefox/102.0,Macintosh,Firefox,102.0,OS X,10.13,8jy8tvjy,agree,5932,,,,"{""harmony"":41,""weight"":29,""beauty"":43,""attractiveness"":69}","[2,3,1,0]",69,43,41,29,H020
,,,,,multiple-slider,22,155681,0.0-4.0-18.0,18,1,2022-10-13 02:46:47,2047352bf9184260afd7af9ae9f812c9,73.48.161.94,Mozilla/5.0 (Macintosh; Intel Mac OS X 10.13; rv:102.0) Gecko/20100101 Firefox/102.0,Macintosh,Firefox,102.0,OS X,10.13,8jy8tvjy,agree,4717,,,,"{""weight"":40,""attractiveness"":67,""harmony"":61,""beauty"":62}","[3,0,2,1]",67,62,61,40,H050
,,,,,multiple-slider,23,161969,0.0-4.0-19.0,18,1,2022-10-13 02:46:47,2047352bf9184260afd7af9ae9f812c9,73.48.161.94,Mozilla/5.0 (Macintosh; Intel Mac OS X 10.13; rv:102.0) Gecko/20100101 Firefox/102.0,Macintosh,Firefox,102.0,OS X,10.13,8jy8tvjy,agree,6280,,,,"{""attractiveness"":28,""beauty"":35,""harmony"":35,""weight"":100}","[0,1,2,3]",28,35,35,100,T220
,,,,,multiple-slider,24,168888,0.0-4.0-20.0,18,1,2022-10-13 02:46:47,2047352bf9184260afd7af9ae9f812c9,73.48.161.94,Mozilla/5.0 (Macintosh; Intel Mac OS X 10.13; rv:102.0) Gecko/20100101 Firefox/102.0,Macintosh,Firefox,102.0,OS X,10.13,8jy8tvjy,agree,6910,,,,"{""attractiveness"":69,""weight"":0,""harmony"":75,""beauty"":71}","[0,3,2,1]",69,71,75,0,H160
,,,,,multiple-slider,25,173292,0.0-4.0-21.0,18,1,2022-10-13 02:46:47,2047352bf9184260afd7af9ae9f812c9,73.48.161.94,Mozilla/5.0 (Macintosh; Intel Mac OS X 10.13; rv:102.0) Gecko/20100101 Firefox/102.0,Macintosh,Firefox,102.0,OS X,10.13,8jy8tvjy,agree,4394,,,,"{""weight"":100,""attractiveness"":22,""harmony"":14,""beauty"":23}","[3,0,2,1]",22,23,14,100,T290
,,,,,multiple-slider,26,180963,0.0-4.0-22.0,18,1,2022-10-13 02:46:47,2047352bf9184260afd7af9ae9f812c9,73.48.161.94,Mozilla/5.0 (Macintosh; Intel Mac OS X 10.13; rv:102.0) Gecko/20100101 Firefox/102.0,Macintosh,Firefox,102.0,OS X,10.13,8jy8tvjy,agree,7662,,,,"{""harmony"":41,""attractiveness"":53,""beauty"":41,""weight"":96}","[2,0,1,3]",53,41,41,96,T200
,,,,,multiple-slider,27,186058,0.0-4.0-23.0,18,1,2022-10-13 02:46:47,2047352bf9184260afd7af9ae9f812c9,73.48.161.94,Mozilla/5.0 (Macintosh; Intel Mac OS X 10.13; rv:102.0) Gecko/20100101 Firefox/102.0,Macintosh,Firefox,102.0,OS X,10.13,8jy8tvjy,agree,5086,,,,"{""beauty"":64,""attractiveness"":35,""weight"":100,""harmony"":67}","[1,0,3,2]",35,64,67,100,T240
,,,,,multiple-slider,28,192323,0.0-4.0-24.0,18,1,2022-10-13 02:46:47,2047352bf9184260afd7af9ae9f812c9,73.48.161.94,Mozilla/5.0 (Macintosh; Intel Mac OS X 10.13; rv:102.0) Gecko/20100101 Firefox/102.0,Macintosh,Firefox,102.0,OS X,10.13,8jy8tvjy,agree,6257,,,,"{""harmony"":59,""attractiveness"":62,""weight"":75,""beauty"":67}","[2,0,3,1]",62,67,59,75,T180
,,,,,multiple-slider,29,200968,0.0-4.0-25.0,18,1,2022-10-13 02:46:47,2047352bf9184260afd7af9ae9f812c9,73.48.161.94,Mozilla/5.0 (Macintosh; Intel Mac OS X 10.13; rv:102.0) Gecko/20100101 Firefox/102.0,Macintosh,Firefox,102.0,OS X,10.13,8jy8tvjy,agree,8635,,,,"{""beauty"":26,""harmony"":13,""attractiveness"":39,""weight"":39}","[1,2,0,3]",39,26,13,39,H300
,,,,,multiple-slider,30,206463,0.0-4.0-26.0,18,1,2022-10-13 02:46:47,2047352bf9184260afd7af9ae9f812c9,73.48.161.94,Mozilla/5.0 (Macintosh; Intel Mac OS X 10.13; rv:102.0) Gecko/20100101 Firefox/102.0,Macintosh,Firefox,102.0,OS X,10.13,8jy8tvjy,agree,5479,,,,"{""beauty"":58,""attractiveness"":57,""harmony"":65,""weight"":36}","[1,0,2,3]",57,58,65,36,T010
,,,,,multiple-slider,31,213756,0.0-4.0-27.0,18,1,2022-10-13 02:46:47,2047352bf9184260afd7af9ae9f812c9,73.48.161.94,Mozilla/5.0 (Macintosh; Intel Mac OS X 10.13; rv:102.0) Gecko/20100101 Firefox/102.0,Macintosh,Firefox,102.0,OS X,10.13,8jy8tvjy,agree,7279,,,,"{""weight"":39,""harmony"":80,""beauty"":72,""attractiveness"":64}","[3,2,1,0]",64,72,80,39,H060
,,,,,multiple-slider,32,218665,0.0-4.0-28.0,18,1,2022-10-13 02:46:47,2047352bf9184260afd7af9ae9f812c9,73.48.161.94,Mozilla/5.0 (Macintosh; Intel Mac OS X 10.13; rv:102.0) Gecko/20100101 Firefox/102.0,Macintosh,Firefox,102.0,OS X,10.13,8jy8tvjy,agree,4900,,,,"{""beauty"":72,""attractiveness"":72,""harmony"":63,""weight"":90}","[1,0,2,3]",72,72,63,90,T080
,,,,,multiple-slider,33,222990,0.0-4.0-29.0,18,1,2022-10-13 02:46:47,2047352bf9184260afd7af9ae9f812c9,73.48.161.94,Mozilla/5.0 (Macintosh; Intel Mac OS X 10.13; rv:102.0) Gecko/20100101 Firefox/102.0,Macintosh,Firefox,102.0,OS X,10.13,8jy8tvjy,agree,4315,,,,"{""weight"":71,""beauty"":58,""harmony"":57,""attractiveness"":62}","[3,1,2,0]",62,58,57,71,N000
,,,,,multiple-slider,34,232898,0.0-4.0-30.0,18,1,2022-10-13 02:46:47,2047352bf9184260afd7af9ae9f812c9,73.48.161.94,Mozilla/5.0 (Macintosh; Intel Mac OS X 10.13; rv:102.0) Gecko/20100101 Firefox/102.0,Macintosh,Firefox,102.0,OS X,10.13,8jy8tvjy,agree,9899,,,,"{""weight"":38,""harmony"":70,""attractiveness"":72,""beauty"":67}","[3,2,0,1]",72,67,70,38,T040
,,,,,multiple-slider,35,238402,0.0-4.0-31.0,18,1,2022-10-13 02:46:47,2047352bf9184260afd7af9ae9f812c9,73.48.161.94,Mozilla/5.0 (Macintosh; Intel Mac OS X 10.13; rv:102.0) Gecko/20100101 Firefox/102.0,Macintosh,Firefox,102.0,OS X,10.13,8jy8tvjy,agree,5492,,,,"{""beauty"":76,""attractiveness"":64,""weight"":61,""harmony"":55}","[1,0,3,2]",64,76,55,61,T120
,,,,,multiple-slider,36,244394,0.0-4.0-32.0,18,1,2022-10-13 02:46:47,2047352bf9184260afd7af9ae9f812c9,73.48.161.94,Mozilla/5.0 (Macintosh; Intel Mac OS X 10.13; rv:102.0) Gecko/20100101 Firefox/102.0,Macintosh,Firefox,102.0,OS X,10.13,8jy8tvjy,agree,5982,,,,"{""beauty"":78,""harmony"":85,""weight"":36,""attractiveness"":75}","[1,2,3,0]",75,78,85,36,H100
,,,,,multiple-slider,37,251377,0.0-4.0-33.0,18,1,2022-10-13 02:46:47,2047352bf9184260afd7af9ae9f812c9,73.48.161.94,Mozilla/5.0 (Macintosh; Intel Mac OS X 10.13; rv:102.0) Gecko/20100101 Firefox/102.0,Macintosh,Firefox,102.0,OS X,10.13,8jy8tvjy,agree,6973,,,,"{""attractiveness"":77,""harmony"":62,""beauty"":76,""weight"":60}","[0,2,1,3]",77,76,62,60,T020
,,,,,multiple-slider,38,258561,0.0-4.0-34.0,18,1,2022-10-13 02:46:47,2047352bf9184260afd7af9ae9f812c9,73.48.161.94,Mozilla/5.0 (Macintosh; Intel Mac OS X 10.13; rv:102.0) Gecko/20100101 Firefox/102.0,Macintosh,Firefox,102.0,OS X,10.13,8jy8tvjy,agree,7175,,,,"{""beauty"":84,""attractiveness"":78,""weight"":36,""harmony"":62}","[1,0,3,2]",78,84,62,36,H070
,,,,,multiple-slider,39,264302,0.0-4.0-35.0,18,1,2022-10-13 02:46:47,2047352bf9184260afd7af9ae9f812c9,73.48.161.94,Mozilla/5.0 (Macintosh; Intel Mac OS X 10.13; rv:102.0) Gecko/20100101 Firefox/102.0,Macintosh,Firefox,102.0,OS X,10.13,8jy8tvjy,agree,5724,,,,"{""weight"":30,""beauty"":64,""harmony"":59,""attractiveness"":73}","[3,1,2,0]",73,64,59,30,H040
,,,,,multiple-slider,40,268995,0.0-4.0-36.0,18,1,2022-10-13 02:46:47,2047352bf9184260afd7af9ae9f812c9,73.48.161.94,Mozilla/5.0 (Macintosh; Intel Mac OS X 10.13; rv:102.0) Gecko/20100101 Firefox/102.0,Macintosh,Firefox,102.0,OS X,10.13,8jy8tvjy,agree,4679,,,,"{""harmony"":75,""beauty"":59,""weight"":94,""attractiveness"":74}","[2,1,3,0]",74,59,75,94,T160
,,,,,multiple-slider,41,276270,0.0-4.0-37.0,18,1,2022-10-13 02:46:47,2047352bf9184260afd7af9ae9f812c9,73.48.161.94,Mozilla/5.0 (Macintosh; Intel Mac OS X 10.13; rv:102.0) Gecko/20100101 Firefox/102.0,Macintosh,Firefox,102.0,OS X,10.13,8jy8tvjy,agree,7265,,,,"{""attractiveness"":66,""beauty"":61,""weight"":0,""harmony"":32}","[0,1,3,2]",66,61,32,0,H270
,,,,,multiple-slider,42,282555,0.0-4.0-38.0,18,1,2022-10-13 02:46:47,2047352bf9184260afd7af9ae9f812c9,73.48.161.94,Mozilla/5.0 (Macintosh; Intel Mac OS X 10.13; rv:102.0) Gecko/20100101 Firefox/102.0,Macintosh,Firefox,102.0,OS X,10.13,8jy8tvjy,agree,6276,,,,"{""beauty"":37,""attractiveness"":45,""harmony"":10,""weight"":100}","[1,0,2,3]",45,37,10,100,T300
,,,,,multiple-slider,43,287963,0.0-4.0-39.0,18,1,2022-10-13 02:46:47,2047352bf9184260afd7af9ae9f812c9,73.48.161.94,Mozilla/5.0 (Macintosh; Intel Mac OS X 10.13; rv:102.0) Gecko/20100101 Firefox/102.0,Macintosh,Firefox,102.0,OS X,10.13,8jy8tvjy,agree,5399,,,,"{""weight"":13,""beauty"":67,""attractiveness"":68,""harmony"":76}","[3,1,0,2]",68,67,76,13,H150
,,,,,multiple-slider,44,292818,0.0-4.0-40.0,18,1,2022-10-13 02:46:47,2047352bf9184260afd7af9ae9f812c9,73.48.161.94,Mozilla/5.0 (Macintosh; Intel Mac OS X 10.13; rv:102.0) Gecko/20100101 Firefox/102.0,Macintosh,Firefox,102.0,OS X,10.13,8jy8tvjy,agree,4845,,,,"{""harmony"":68,""weight"":0,""beauty"":82,""attractiveness"":97}","[2,3,1,0]",97,82,68,0,H180
,,,,,multiple-slider,45,297624,0.0-4.0-41.0,18,1,2022-10-13 02:46:47,2047352bf9184260afd7af9ae9f812c9,73.48.161.94,Mozilla/5.0 (Macintosh; Intel Mac OS X 10.13; rv:102.0) Gecko/20100101 Firefox/102.0,Macintosh,Firefox,102.0,OS X,10.13,8jy8tvjy,agree,4796,,,,"{""weight"":34,""harmony"":71,""attractiveness"":66,""beauty"":83}","[3,2,0,1]",66,83,71,34,H080
,,,,,multiple-slider,46,304474,0.0-4.0-42.0,18,1,2022-10-13 02:46:47,2047352bf9184260afd7af9ae9f812c9,73.48.161.94,Mozilla/5.0 (Macintosh; Intel Mac OS X 10.13; rv:102.0) Gecko/20100101 Firefox/102.0,Macintosh,Firefox,102.0,OS X,10.13,8jy8tvjy,agree,6840,,,,"{""attractiveness"":77,""beauty"":78,""harmony"":65,""weight"":10}","[0,1,2,3]",77,78,65,10,H090
,,,,,multiple-slider,47,310870,0.0-4.0-43.0,18,1,2022-10-13 02:46:47,2047352bf9184260afd7af9ae9f812c9,73.48.161.94,Mozilla/5.0 (Macintosh; Intel Mac OS X 10.13; rv:102.0) Gecko/20100101 Firefox/102.0,Macintosh,Firefox,102.0,OS X,10.13,8jy8tvjy,agree,6385,,,,"{""attractiveness"":57,""weight"":75,""harmony"":65,""beauty"":60}","[0,3,2,1]",57,60,65,75,T110
,,,,,multiple-slider,48,318037,0.0-4.0-44.0,18,1,2022-10-13 02:46:47,2047352bf9184260afd7af9ae9f812c9,73.48.161.94,Mozilla/5.0 (Macintosh; Intel Mac OS X 10.13; rv:102.0) Gecko/20100101 Firefox/102.0,Macintosh,Firefox,102.0,OS X,10.13,8jy8tvjy,agree,7156,,,,"{""beauty"":58,""harmony"":46,""attractiveness"":56,""weight"":100}","[1,2,0,3]",56,58,46,100,T260
,,,,,multiple-slider,49,322370,0.0-4.0-45.0,18,1,2022-10-13 02:46:47,2047352bf9184260afd7af9ae9f812c9,73.48.161.94,Mozilla/5.0 (Macintosh; Intel Mac OS X 10.13; rv:102.0) Gecko/20100101 Firefox/102.0,Macintosh,Firefox,102.0,OS X,10.13,8jy8tvjy,agree,4324,,,,"{""beauty"":69,""attractiveness"":82,""harmony"":74,""weight"":0}","[1,0,2,3]",82,69,74,0,H220
,,,,,multiple-slider,50,330942,0.0-4.0-46.0,18,1,2022-10-13 02:46:47,2047352bf9184260afd7af9ae9f812c9,73.48.161.94,Mozilla/5.0 (Macintosh; Intel Mac OS X 10.13; rv:102.0) Gecko/20100101 Firefox/102.0,Macintosh,Firefox,102.0,OS X,10.13,8jy8tvjy,agree,8562,,,,"{""beauty"":64,""weight"":2,""harmony"":40,""attractiveness"":74}","[1,3,2,0]",74,64,40,2,H290
,,,,,multiple-slider,51,336975,0.0-4.0-47.0,18,1,2022-10-13 02:46:47,2047352bf9184260afd7af9ae9f812c9,73.48.161.94,Mozilla/5.0 (Macintosh; Intel Mac OS X 10.13; rv:102.0) Gecko/20100101 Firefox/102.0,Macintosh,Firefox,102.0,OS X,10.13,8jy8tvjy,agree,6020,,,,"{""harmony"":35,""beauty"":43,""weight"":100,""attractiveness"":42}","[2,1,3,0]",42,43,35,100,T270
,,,,,multiple-slider,52,345537,0.0-4.0-48.0,18,1,2022-10-13 02:46:47,2047352bf9184260afd7af9ae9f812c9,73.48.161.94,Mozilla/5.0 (Macintosh; Intel Mac OS X 10.13; rv:102.0) Gecko/20100101 Firefox/102.0,Macintosh,Firefox,102.0,OS X,10.13,8jy8tvjy,agree,8550,,,,"{""weight"":57,""beauty"":56,""harmony"":68,""attractiveness"":56}","[3,1,2,0]",56,56,68,57,T050
,,,,,multiple-slider,53,352113,0.0-4.0-49.0,18,1,2022-10-13 02:46:47,2047352bf9184260afd7af9ae9f812c9,73.48.161.94,Mozilla/5.0 (Macintosh; Intel Mac OS X 10.13; rv:102.0) Gecko/20100101 Firefox/102.0,Macintosh,Firefox,102.0,OS X,10.13,8jy8tvjy,agree,6566,,,,"{""attractiveness"":44,""weight"":99,""harmony"":65,""beauty"":61}","[0,3,2,1]",44,61,65,99,T230
,,,,,multiple-slider,54,361052,0.0-4.0-50.0,18,1,2022-10-13 02:46:47,2047352bf9184260afd7af9ae9f812c9,73.48.161.94,Mozilla/5.0 (Macintosh; Intel Mac OS X 10.13; rv:102.0) Gecko/20100101 Firefox/102.0,Macintosh,Firefox,102.0,OS X,10.13,8jy8tvjy,agree,8929,,,,"{""beauty"":63,""harmony"":61,""attractiveness"":70,""weight"":82}","[1,2,0,3]",70,63,61,82,T130
,,,,,multiple-slider,55,367165,0.0-4.0-51.0,18,1,2022-10-13 02:46:47,2047352bf9184260afd7af9ae9f812c9,73.48.161.94,Mozilla/5.0 (Macintosh; Intel Mac OS X 10.13; rv:102.0) Gecko/20100101 Firefox/102.0,Macintosh,Firefox,102.0,OS X,10.13,8jy8tvjy,agree,6100,,,,"{""weight"":19,""beauty"":67,""harmony"":63,""attractiveness"":76}","[3,1,2,0]",76,67,63,19,H120
,,,,,multiple-slider,56,375454,0.0-4.0-52.0,18,1,2022-10-13 02:46:47,2047352bf9184260afd7af9ae9f812c9,73.48.161.94,Mozilla/5.0 (Macintosh; Intel Mac OS X 10.13; rv:102.0) Gecko/20100101 Firefox/102.0,Macintosh,Firefox,102.0,OS X,10.13,8jy8tvjy,agree,8278,,,,"{""harmony"":35,""weight"":0,""beauty"":75,""attractiveness"":68}","[2,3,1,0]",68,75,35,0,H230
,,,,,multiple-slider,57,381222,0.0-4.0-53.0,18,1,2022-10-13 02:46:47,2047352bf9184260afd7af9ae9f812c9,73.48.161.94,Mozilla/5.0 (Macintosh; Intel Mac OS X 10.13; rv:102.0) Gecko/20100101 Firefox/102.0,Macintosh,Firefox,102.0,OS X,10.13,8jy8tvjy,agree,5758,,,,"{""harmony"":71,""beauty"":59,""weight"":83,""attractiveness"":64}","[2,1,3,0]",64,59,71,83,T170
,,,,,multiple-slider,58,387355,0.0-4.0-54.0,18,1,2022-10-13 02:46:47,2047352bf9184260afd7af9ae9f812c9,73.48.161.94,Mozilla/5.0 (Macintosh; Intel Mac OS X 10.13; rv:102.0) Gecko/20100101 Firefox/102.0,Macintosh,Firefox,102.0,OS X,10.13,8jy8tvjy,agree,6123,,,,"{""harmony"":68,""weight"":84,""beauty"":73,""attractiveness"":85}","[2,3,1,0]",85,73,68,84,T150
,,,,,multiple-slider,59,393950,0.0-4.0-55.0,18,1,2022-10-13 02:46:47,2047352bf9184260afd7af9ae9f812c9,73.48.161.94,Mozilla/5.0 (Macintosh; Intel Mac OS X 10.13; rv:102.0) Gecko/20100101 Firefox/102.0,Macintosh,Firefox,102.0,OS X,10.13,8jy8tvjy,agree,6584,,,,"{""weight"":81,""harmony"":61,""attractiveness"":59,""beauty"":70}","[3,2,0,1]",59,70,61,81,T060
,,,,,multiple-slider,60,400895,0.0-4.0-56.0,18,1,2022-10-13 02:46:47,2047352bf9184260afd7af9ae9f812c9,73.48.161.94,Mozilla/5.0 (Macintosh; Intel Mac OS X 10.13; rv:102.0) Gecko/20100101 Firefox/102.0,Macintosh,Firefox,102.0,OS X,10.13,8jy8tvjy,agree,6930,,,,"{""harmony"":23,""beauty"":72,""attractiveness"":72,""weight"":0}","[2,1,0,3]",72,72,23,0,H260
,,,,,multiple-slider,61,407574,0.0-4.0-57.0,18,1,2022-10-13 02:46:47,2047352bf9184260afd7af9ae9f812c9,73.48.161.94,Mozilla/5.0 (Macintosh; Intel Mac OS X 10.13; rv:102.0) Gecko/20100101 Firefox/102.0,Macintosh,Firefox,102.0,OS X,10.13,8jy8tvjy,agree,6668,,,,"{""beauty"":60,""harmony"":77,""weight"":61,""attractiveness"":70}","[1,2,3,0]",70,60,77,61,T030
,,,,,multiple-slider,62,417066,0.0-4.0-58.0,18,1,2022-10-13 02:46:47,2047352bf9184260afd7af9ae9f812c9,73.48.161.94,Mozilla/5.0 (Macintosh; Intel Mac OS X 10.13; rv:102.0) Gecko/20100101 Firefox/102.0,Macintosh,Firefox,102.0,OS X,10.13,8jy8tvjy,agree,9481,,,,"{""attractiveness"":90,""harmony"":28,""weight"":0,""beauty"":76}","[0,2,3,1]",90,76,28,0,H240
,,,,,multiple-slider,63,422146,0.0-4.0-59.0,18,1,2022-10-13 02:46:47,2047352bf9184260afd7af9ae9f812c9,73.48.161.94,Mozilla/5.0 (Macintosh; Intel Mac OS X 10.13; rv:102.0) Gecko/20100101 Firefox/102.0,Macintosh,Firefox,102.0,OS X,10.13,8jy8tvjy,agree,5069,,,,"{""harmony"":69,""attractiveness"":66,""weight"":81,""beauty"":68}","[2,0,3,1]",66,68,69,81,T140
,,,,,multiple-slider,64,427553,0.0-4.0-60.0,18,1,2022-10-13 02:46:47,2047352bf9184260afd7af9ae9f812c9,73.48.161.94,Mozilla/5.0 (Macintosh; Intel Mac OS X 10.13; rv:102.0) Gecko/20100101 Firefox/102.0,Macintosh,Firefox,102.0,OS X,10.13,8jy8tvjy,agree,5398,,,,"{""attractiveness"":65,""harmony"":61,""weight"":85,""beauty"":79}","[0,2,3,1]",65,79,61,85,T210
,,,,,external-html,65,451142,0.0-5.0,18,1,2022-10-13 02:46:47,2047352bf9184260afd7af9ae9f812c9,73.48.161.94,Mozilla/5.0 (Macintosh; Intel Mac OS X 10.13; rv:102.0) Gecko/20100101 Firefox/102.0,Macintosh,Firefox,102.0,OS X,10.13,8jy8tvjy,agree,23076,debriefing.html,,,,,,,,,
true,false,[],[],[],preload,0,1257,0.0-0.0,10,1,2022-10-12 20:51:50,2047352bf9184260afd7af9ae9f812c9,199.126.118.165,"Mozilla/5.0 (Windows NT 10.0; Win64; x64) AppleWebKit/537.36 (KHTML, like Gecko) Chrome/106.0.0.0 Safari/537.36",WebKit,Chrome,106.0.0.0,Windows,10.0,se4hmv9t,agree,,,,,,,,,,,
,,,,,external-html,1,27533,0.0-1.0,10,1,2022-10-12 20:51:50,2047352bf9184260afd7af9ae9f812c9,199.126.118.165,"Mozilla/5.0 (Windows NT 10.0; Win64; x64) AppleWebKit/537.36 (KHTML, like Gecko) Chrome/106.0.0.0 Safari/537.36",WebKit,Chrome,106.0.0.0,Windows,10.0,se4hmv9t,agree,26038.89999999106,consent.html,,,,,,,,,
,,,,,survey-text,2,114318,0.0-2.0,10,1,2022-10-12 20:51:50,2047352bf9184260afd7af9ae9f812c9,199.126.118.165,"Mozilla/5.0 (Windows NT 10.0; Win64; x64) AppleWebKit/537.36 (KHTML, like Gecko) Chrome/106.0.0.0 Safari/537.36",WebKit,Chrome,106.0.0.0,Windows,10.0,se4hmv9t,agree,86767.20000000298,,"{""prolID"":""613041ad32f566d195975bab"",""age"":""37"",""weight"":""160"",""height"":""5.9"",""mh"":""N/A""}",,,,,,,,
,,,,,instructions,3,141334,0.0-3.0,10,1,2022-10-12 20:51:50,2047352bf9184260afd7af9ae9f812c9,199.126.118.165,"Mozilla/5.0 (Windows NT 10.0; Win64; x64) AppleWebKit/537.36 (KHTML, like Gecko) Chrome/106.0.0.0 Safari/537.36",WebKit,Chrome,106.0.0.0,Windows,10.0,se4hmv9t,agree,27014.89999999106,,,"[{""page_index"":0,""viewing_time"":2158.2000000029802},{""page_index"":1,""viewing_time"":6383.899999991059},{""page_index"":2,""viewing_time"":8112},{""page_index"":3,""viewing_time"":10360}]",,,,,,,
,,,,,multiple-slider,4,171270,0.0-4.0-0.0,10,1,2022-10-12 20:51:50,2047352bf9184260afd7af9ae9f812c9,199.126.118.165,"Mozilla/5.0 (Windows NT 10.0; Win64; x64) AppleWebKit/537.36 (KHTML, like Gecko) Chrome/106.0.0.0 Safari/537.36",WebKit,Chrome,106.0.0.0,Windows,10.0,se4hmv9t,agree,29932.89999999106,,,,"{""attractiveness"":90,""beauty"":90,""weight"":5,""harmony"":94}","[0,1,3,2]",90,90,94,5,H230
,,,,,multiple-slider,5,192086,0.0-4.0-1.0,10,1,2022-10-12 20:51:50,2047352bf9184260afd7af9ae9f812c9,199.126.118.165,"Mozilla/5.0 (Windows NT 10.0; Win64; x64) AppleWebKit/537.36 (KHTML, like Gecko) Chrome/106.0.0.0 Safari/537.36",WebKit,Chrome,106.0.0.0,Windows,10.0,se4hmv9t,agree,20812.39999999106,,,,"{""beauty"":91,""attractiveness"":87,""weight"":41,""harmony"":82}","[1,0,3,2]",87,91,82,41,H090
,,,,,multiple-slider,6,211766,0.0-4.0-2.0,10,1,2022-10-12 20:51:50,2047352bf9184260afd7af9ae9f812c9,199.126.118.165,"Mozilla/5.0 (Windows NT 10.0; Win64; x64) AppleWebKit/537.36 (KHTML, like Gecko) Chrome/106.0.0.0 Safari/537.36",WebKit,Chrome,106.0.0.0,Windows,10.0,se4hmv9t,agree,19676.79999999702,,,,"{""beauty"":8,""weight"":100,""harmony"":35,""attractiveness"":18}","[1,3,2,0]",18,8,35,100,T280
,,,,,multiple-slider,7,229086,0.0-4.0-3.0,10,1,2022-10-12 20:51:50,2047352bf9184260afd7af9ae9f812c9,199.126.118.165,"Mozilla/5.0 (Windows NT 10.0; Win64; x64) AppleWebKit/537.36 (KHTML, like Gecko) Chrome/106.0.0.0 Safari/537.36",WebKit,Chrome,106.0.0.0,Windows,10.0,se4hmv9t,agree,17316.70000000298,,,,"{""harmony"":58,""weight"":92,""attractiveness"":44,""beauty"":54}","[2,3,0,1]",44,54,58,92,T180
,,,,,multiple-slider,8,247670,0.0-4.0-4.0,10,1,2022-10-12 20:51:50,2047352bf9184260afd7af9ae9f812c9,199.126.118.165,"Mozilla/5.0 (Windows NT 10.0; Win64; x64) AppleWebKit/537.36 (KHTML, like Gecko) Chrome/106.0.0.0 Safari/537.36",WebKit,Chrome,106.0.0.0,Windows,10.0,se4hmv9t,agree,18580.80000001192,,,,"{""weight"":3,""harmony"":94,""beauty"":82,""attractiveness"":80}","[3,2,1,0]",80,82,94,3,H180
,,,,,multiple-slider,9,259301,0.0-4.0-5.0,10,1,2022-10-12 20:51:50,2047352bf9184260afd7af9ae9f812c9,199.126.118.165,"Mozilla/5.0 (Windows NT 10.0; Win64; x64) AppleWebKit/537.36 (KHTML, like Gecko) Chrome/106.0.0.0 Safari/537.36",WebKit,Chrome,106.0.0.0,Windows,10.0,se4hmv9t,agree,11628.90000000596,,,,"{""beauty"":59,""harmony"":68,""weight"":67,""attractiveness"":53}","[1,2,3,0]",53,59,68,67,T050
,,,,,multiple-slider,10,270053,0.0-4.0-6.0,10,1,2022-10-12 20:51:50,2047352bf9184260afd7af9ae9f812c9,199.126.118.165,"Mozilla/5.0 (Windows NT 10.0; Win64; x64) AppleWebKit/537.36 (KHTML, like Gecko) Chrome/106.0.0.0 Safari/537.36",WebKit,Chrome,106.0.0.0,Windows,10.0,se4hmv9t,agree,10749.09999999404,,,,"{""beauty"":85,""harmony"":80,""attractiveness"":85,""weight"":5}","[1,2,0,3]",85,85,80,5,H190
,,,,,multiple-slider,11,283077,0.0-4.0-7.0,10,1,2022-10-12 20:51:50,2047352bf9184260afd7af9ae9f812c9,199.126.118.165,"Mozilla/5.0 (Windows NT 10.0; Win64; x64) AppleWebKit/537.36 (KHTML, like Gecko) Chrome/106.0.0.0 Safari/537.36",WebKit,Chrome,106.0.0.0,Windows,10.0,se4hmv9t,agree,13020.800000011921,,,,"{""weight"":6,""beauty"":75,""harmony"":85,""attractiveness"":87}","[3,1,2,0]",87,75,85,6,H210
,,,,,multiple-slider,12,296517,0.0-4.0-8.0,10,1,2022-10-12 20:51:50,2047352bf9184260afd7af9ae9f812c9,199.126.118.165,"Mozilla/5.0 (Windows NT 10.0; Win64; x64) AppleWebKit/537.36 (KHTML, like Gecko) Chrome/106.0.0.0 Safari/537.36",WebKit,Chrome,106.0.0.0,Windows,10.0,se4hmv9t,agree,13437,,,,"{""harmony"":99,""beauty"":96,""attractiveness"":95,""weight"":15}","[2,1,0,3]",95,96,99,15,H110
,,,,,multiple-slider,13,306789,0.0-4.0-9.0,10,1,2022-10-12 20:51:50,2047352bf9184260afd7af9ae9f812c9,199.126.118.165,"Mozilla/5.0 (Windows NT 10.0; Win64; x64) AppleWebKit/537.36 (KHTML, like Gecko) Chrome/106.0.0.0 Safari/537.36",WebKit,Chrome,106.0.0.0,Windows,10.0,se4hmv9t,agree,10269,,,,"{""harmony"":88,""beauty"":78,""weight"":9,""attractiveness"":81}","[2,1,3,0]",81,78,88,9,H170
,,,,,multiple-slider,14,323301,0.0-4.0-10.0,10,1,2022-10-12 20:51:50,2047352bf9184260afd7af9ae9f812c9,199.126.118.165,"Mozilla/5.0 (Windows NT 10.0; Win64; x64) AppleWebKit/537.36 (KHTML, like Gecko) Chrome/106.0.0.0 Safari/537.36",WebKit,Chrome,106.0.0.0,Windows,10.0,se4hmv9t,agree,16508.89999999106,,,,"{""attractiveness"":89,""beauty"":75,""harmony"":83,""weight"":5}","[0,1,2,3]",89,75,83,5,H200
,,,,,multiple-slider,15,337405,0.0-4.0-11.0,10,1,2022-10-12 20:51:50,2047352bf9184260afd7af9ae9f812c9,199.126.118.165,"Mozilla/5.0 (Windows NT 10.0; Win64; x64) AppleWebKit/537.36 (KHTML, like Gecko) Chrome/106.0.0.0 Safari/537.36",WebKit,Chrome,106.0.0.0,Windows,10.0,se4hmv9t,agree,14101,,,,"{""attractiveness"":88,""harmony"":91,""weight"":28,""beauty"":88}","[0,2,3,1]",88,88,91,28,H040
,,,,,multiple-slider,16,348437,0.0-4.0-12.0,10,1,2022-10-12 20:51:50,2047352bf9184260afd7af9ae9f812c9,199.126.118.165,"Mozilla/5.0 (Windows NT 10.0; Win64; x64) AppleWebKit/537.36 (KHTML, like Gecko) Chrome/106.0.0.0 Safari/537.36",WebKit,Chrome,106.0.0.0,Windows,10.0,se4hmv9t,agree,11029.20000000298,,,,"{""attractiveness"":87,""beauty"":71,""harmony"":72,""weight"":35}","[0,1,2,3]",87,71,72,35,T030
,,,,,multiple-slider,17,361813,0.0-4.0-13.0,10,1,2022-10-12 20:51:50,2047352bf9184260afd7af9ae9f812c9,199.126.118.165,"Mozilla/5.0 (Windows NT 10.0; Win64; x64) AppleWebKit/537.36 (KHTML, like Gecko) Chrome/106.0.0.0 Safari/537.36",WebKit,Chrome,106.0.0.0,Windows,10.0,se4hmv9t,agree,13372.800000011921,,,,"{""attractiveness"":89,""weight"":3,""beauty"":83,""harmony"":92}","[0,3,1,2]",89,83,92,3,H270
,,,,,multiple-slider,18,372462,0.0-4.0-14.0,10,1,2022-10-12 20:51:50,2047352bf9184260afd7af9ae9f812c9,199.126.118.165,"Mozilla/5.0 (Windows NT 10.0; Win64; x64) AppleWebKit/537.36 (KHTML, like Gecko) Chrome/106.0.0.0 Safari/537.36",WebKit,Chrome,106.0.0.0,Windows,10.0,se4hmv9t,agree,10644.89999999106,,,,"{""beauty"":91,""harmony"":84,""attractiveness"":89,""weight"":36}","[1,2,0,3]",89,91,84,36,H050
,,,,,multiple-slider,19,381102,0.0-4.0-15.0,10,1,2022-10-12 20:51:50,2047352bf9184260afd7af9ae9f812c9,199.126.118.165,"Mozilla/5.0 (Windows NT 10.0; Win64; x64) AppleWebKit/537.36 (KHTML, like Gecko) Chrome/106.0.0.0 Safari/537.36",WebKit,Chrome,106.0.0.0,Windows,10.0,se4hmv9t,agree,8637,,,,"{""beauty"":82,""weight"":4,""attractiveness"":79,""harmony"":89}","[1,3,0,2]",79,82,89,4,H290
,,,,,multiple-slider,20,396214,0.0-4.0-16.0,10,1,2022-10-12 20:51:50,2047352bf9184260afd7af9ae9f812c9,199.126.118.165,"Mozilla/5.0 (Windows NT 10.0; Win64; x64) AppleWebKit/537.36 (KHTML, like Gecko) Chrome/106.0.0.0 Safari/537.36",WebKit,Chrome,106.0.0.0,Windows,10.0,se4hmv9t,agree,15109.09999999404,,,,"{""attractiveness"":7,""beauty"":12,""harmony"":29,""weight"":98}","[0,1,2,3]",7,12,29,98,T260
,,,,,multiple-slider,21,406758,0.0-4.0-17.0,10,1,2022-10-12 20:51:50,2047352bf9184260afd7af9ae9f812c9,199.126.118.165,"Mozilla/5.0 (Windows NT 10.0; Win64; x64) AppleWebKit/537.36 (KHTML, like Gecko) Chrome/106.0.0.0 Safari/537.36",WebKit,Chrome,106.0.0.0,Windows,10.0,se4hmv9t,agree,10540.70000000298,,,,"{""beauty"":4,""attractiveness"":4,""weight"":97,""harmony"":20}","[1,0,3,2]",4,4,20,97,T270
,,,,,multiple-slider,22,425406,0.0-4.0-18.0,10,1,2022-10-12 20:51:50,2047352bf9184260afd7af9ae9f812c9,199.126.118.165,"Mozilla/5.0 (Windows NT 10.0; Win64; x64) AppleWebKit/537.36 (KHTML, like Gecko) Chrome/106.0.0.0 Safari/537.36",WebKit,Chrome,106.0.0.0,Windows,10.0,se4hmv9t,agree,18644.90000000596,,,,"{""attractiveness"":26,""harmony"":30,""beauty"":23,""weight"":91}","[0,2,1,3]",26,23,30,91,T200
,,,,,multiple-slider,23,437077,0.0-4.0-19.0,10,1,2022-10-12 20:51:50,2047352bf9184260afd7af9ae9f812c9,199.126.118.165,"Mozilla/5.0 (Windows NT 10.0; Win64; x64) AppleWebKit/537.36 (KHTML, like Gecko) Chrome/106.0.0.0 Safari/537.36",WebKit,Chrome,106.0.0.0,Windows,10.0,se4hmv9t,agree,11668.800000011921,,,,"{""harmony"":16,""weight"":95,""beauty"":10,""attractiveness"":9}","[2,3,1,0]",9,10,16,95,T300
,,,,,multiple-slider,24,448070,0.0-4.0-20.0,10,1,2022-10-12 20:51:50,2047352bf9184260afd7af9ae9f812c9,199.126.118.165,"Mozilla/5.0 (Windows NT 10.0; Win64; x64) AppleWebKit/537.36 (KHTML, like Gecko) Chrome/106.0.0.0 Safari/537.36",WebKit,Chrome,106.0.0.0,Windows,10.0,se4hmv9t,agree,10988.60000000894,,,,"{""attractiveness"":57,""beauty"":68,""weight"":65,""harmony"":60}","[0,1,3,2]",57,68,60,65,T080
,,,,,multiple-slider,25,462421,0.0-4.0-21.0,10,1,2022-10-12 20:51:50,2047352bf9184260afd7af9ae9f812c9,199.126.118.165,"Mozilla/5.0 (Windows NT 10.0; Win64; x64) AppleWebKit/537.36 (KHTML, like Gecko) Chrome/106.0.0.0 Safari/537.36",WebKit,Chrome,106.0.0.0,Windows,10.0,se4hmv9t,agree,14348.60000000894,,,,"{""weight"":81,""attractiveness"":31,""harmony"":40,""beauty"":39}","[3,0,2,1]",31,39,40,81,T210
,,,,,multiple-slider,26,476221,0.0-4.0-22.0,10,1,2022-10-12 20:51:50,2047352bf9184260afd7af9ae9f812c9,199.126.118.165,"Mozilla/5.0 (Windows NT 10.0; Win64; x64) AppleWebKit/537.36 (KHTML, like Gecko) Chrome/106.0.0.0 Safari/537.36",WebKit,Chrome,106.0.0.0,Windows,10.0,se4hmv9t,agree,13797,,,,"{""weight"":12,""beauty"":90,""harmony"":89,""attractiveness"":84}","[3,1,2,0]",84,90,89,12,H100
,,,,,multiple-slider,27,499013,0.0-4.0-23.0,10,1,2022-10-12 20:51:50,2047352bf9184260afd7af9ae9f812c9,199.126.118.165,"Mozilla/5.0 (Windows NT 10.0; Win64; x64) AppleWebKit/537.36 (KHTML, like Gecko) Chrome/106.0.0.0 Safari/537.36",WebKit,Chrome,106.0.0.0,Windows,10.0,se4hmv9t,agree,22789.20000000298,,,,"{""beauty"":87,""harmony"":88,""attractiveness"":81,""weight"":56}","[1,2,0,3]",81,87,88,56,T100
,,,,,multiple-slider,28,509741,0.0-4.0-24.0,10,1,2022-10-12 20:51:50,2047352bf9184260afd7af9ae9f812c9,199.126.118.165,"Mozilla/5.0 (Windows NT 10.0; Win64; x64) AppleWebKit/537.36 (KHTML, like Gecko) Chrome/106.0.0.0 Safari/537.36",WebKit,Chrome,106.0.0.0,Windows,10.0,se4hmv9t,agree,10724.5,,,,"{""harmony"":14,""beauty"":14,""weight"":94,""attractiveness"":10}","[2,1,3,0]",10,14,14,94,T250
,,,,,multiple-slider,29,526253,0.0-4.0-25.0,10,1,2022-10-12 20:51:50,2047352bf9184260afd7af9ae9f812c9,199.126.118.165,"Mozilla/5.0 (Windows NT 10.0; Win64; x64) AppleWebKit/537.36 (KHTML, like Gecko) Chrome/106.0.0.0 Safari/537.36",WebKit,Chrome,106.0.0.0,Windows,10.0,se4hmv9t,agree,16508.60000000894,,,,"{""attractiveness"":84,""weight"":3,""beauty"":74,""harmony"":97}","[0,3,1,2]",84,74,97,3,H250
,,,,,multiple-slider,30,536621,0.0-4.0-26.0,10,1,2022-10-12 20:51:50,2047352bf9184260afd7af9ae9f812c9,199.126.118.165,"Mozilla/5.0 (Windows NT 10.0; Win64; x64) AppleWebKit/537.36 (KHTML, like Gecko) Chrome/106.0.0.0 Safari/537.36",WebKit,Chrome,106.0.0.0,Windows,10.0,se4hmv9t,agree,10364.70000000298,,,,"{""weight"":57,""attractiveness"":62,""beauty"":68,""harmony"":76}","[3,0,1,2]",62,68,76,57,T110
,,,,,multiple-slider,31,551285,0.0-4.0-27.0,10,1,2022-10-12 20:51:50,2047352bf9184260afd7af9ae9f812c9,199.126.118.165,"Mozilla/5.0 (Windows NT 10.0; Win64; x64) AppleWebKit/537.36 (KHTML, like Gecko) Chrome/106.0.0.0 Safari/537.36",WebKit,Chrome,106.0.0.0,Windows,10.0,se4hmv9t,agree,14660.60000000894,,,,"{""attractiveness"":83,""beauty"":72,""weight"":3,""harmony"":88}","[0,1,3,2]",83,72,88,3,H240
,,,,,multiple-slider,32,563166,0.0-4.0-28.0,10,1,2022-10-12 20:51:50,2047352bf9184260afd7af9ae9f812c9,199.126.118.165,"Mozilla/5.0 (Windows NT 10.0; Win64; x64) AppleWebKit/537.36 (KHTML, like Gecko) Chrome/106.0.0.0 Safari/537.36",WebKit,Chrome,106.0.0.0,Windows,10.0,se4hmv9t,agree,11876.79999999702,,,,"{""weight"":7,""harmony"":88,""attractiveness"":83,""beauty"":74}","[3,2,0,1]",83,74,88,7,H220
,,,,,multiple-slider,33,576526,0.0-4.0-29.0,10,1,2022-10-12 20:51:50,2047352bf9184260afd7af9ae9f812c9,199.126.118.165,"Mozilla/5.0 (Windows NT 10.0; Win64; x64) AppleWebKit/537.36 (KHTML, like Gecko) Chrome/106.0.0.0 Safari/537.36",WebKit,Chrome,106.0.0.0,Windows,10.0,se4hmv9t,agree,13356.300000011921,,,,"{""beauty"":11,""harmony"":19,""attractiveness"":11,""weight"":96}","[1,2,0,3]",11,11,19,96,T220
,,,,,multiple-slider,34,587974,0.0-4.0-30.0,10,1,2022-10-12 20:51:50,2047352bf9184260afd7af9ae9f812c9,199.126.118.165,"Mozilla/5.0 (Windows NT 10.0; Win64; x64) AppleWebKit/537.36 (KHTML, like Gecko) Chrome/106.0.0.0 Safari/537.36",WebKit,Chrome,106.0.0.0,Windows,10.0,se4hmv9t,agree,11444.5,,,,"{""attractiveness"":12,""weight"":96,""harmony"":12,""beauty"":10}","[0,3,2,1]",12,10,12,96,T230
,,,,,multiple-slider,35,605854,0.0-4.0-31.0,10,1,2022-10-12 20:51:50,2047352bf9184260afd7af9ae9f812c9,199.126.118.165,"Mozilla/5.0 (Windows NT 10.0; Win64; x64) AppleWebKit/537.36 (KHTML, like Gecko) Chrome/106.0.0.0 Safari/537.36",WebKit,Chrome,106.0.0.0,Windows,10.0,se4hmv9t,agree,17876.5,,,,"{""attractiveness"":45,""harmony"":54,""weight"":86,""beauty"":48}","[0,2,3,1]",45,48,54,86,T150
,,,,,multiple-slider,36,619678,0.0-4.0-32.0,10,1,2022-10-12 20:51:50,2047352bf9184260afd7af9ae9f812c9,199.126.118.165,"Mozilla/5.0 (Windows NT 10.0; Win64; x64) AppleWebKit/537.36 (KHTML, like Gecko) Chrome/106.0.0.0 Safari/537.36",WebKit,Chrome,106.0.0.0,Windows,10.0,se4hmv9t,agree,13820.70000000298,,,,"{""beauty"":47,""weight"":95,""attractiveness"":47,""harmony"":51}","[1,3,0,2]",47,47,51,95,T130
,,,,,multiple-slider,37,631742,0.0-4.0-33.0,10,1,2022-10-12 20:51:50,2047352bf9184260afd7af9ae9f812c9,199.126.118.165,"Mozilla/5.0 (Windows NT 10.0; Win64; x64) AppleWebKit/537.36 (KHTML, like Gecko) Chrome/106.0.0.0 Safari/537.36",WebKit,Chrome,106.0.0.0,Windows,10.0,se4hmv9t,agree,12060.20000000298,,,,"{""weight"":67,""attractiveness"":62,""harmony"":79,""beauty"":77}","[3,0,2,1]",62,77,79,67,T040
,,,,,multiple-slider,38,644046,0.0-4.0-34.0,10,1,2022-10-12 20:51:50,2047352bf9184260afd7af9ae9f812c9,199.126.118.165,"Mozilla/5.0 (Windows NT 10.0; Win64; x64) AppleWebKit/537.36 (KHTML, like Gecko) Chrome/106.0.0.0 Safari/537.36",WebKit,Chrome,106.0.0.0,Windows,10.0,se4hmv9t,agree,12300.59999999404,,,,"{""weight"":97,""harmony"":25,""beauty"":13,""attractiveness"":17}","[3,2,1,0]",17,13,25,97,T240
,,,,,multiple-slider,39,651782,0.0-4.0-35.0,10,1,2022-10-12 20:51:50,2047352bf9184260afd7af9ae9f812c9,199.126.118.165,"Mozilla/5.0 (Windows NT 10.0; Win64; x64) AppleWebKit/537.36 (KHTML, like Gecko) Chrome/106.0.0.0 Safari/537.36",WebKit,Chrome,106.0.0.0,Windows,10.0,se4hmv9t,agree,7731.9000000059605,,,,"{""beauty"":8,""harmony"":20,""attractiveness"":9,""weight"":93}","[1,2,0,3]",9,8,20,93,T290
,,,,,multiple-slider,40,664470,0.0-4.0-36.0,10,1,2022-10-12 20:51:50,2047352bf9184260afd7af9ae9f812c9,199.126.118.165,"Mozilla/5.0 (Windows NT 10.0; Win64; x64) AppleWebKit/537.36 (KHTML, like Gecko) Chrome/106.0.0.0 Safari/537.36",WebKit,Chrome,106.0.0.0,Windows,10.0,se4hmv9t,agree,12684.5,,,,"{""beauty"":62,""harmony"":66,""attractiveness"":57,""weight"":81}","[1,2,0,3]",57,62,66,81,T010
,,,,,multiple-slider,41,673982,0.0-4.0-37.0,10,1,2022-10-12 20:51:50,2047352bf9184260afd7af9ae9f812c9,199.126.118.165,"Mozilla/5.0 (Windows NT 10.0; Win64; x64) AppleWebKit/537.36 (KHTML, like Gecko) Chrome/106.0.0.0 Safari/537.36",WebKit,Chrome,106.0.0.0,Windows,10.0,se4hmv9t,agree,9508.70000000298,,,,"{""beauty"":60,""weight"":80,""harmony"":69,""attractiveness"":57}","[1,3,2,0]",57,60,69,80,T020
,,,,,multiple-slider,42,688558,0.0-4.0-38.0,10,1,2022-10-12 20:51:50,2047352bf9184260afd7af9ae9f812c9,199.126.118.165,"Mozilla/5.0 (Windows NT 10.0; Win64; x64) AppleWebKit/537.36 (KHTML, like Gecko) Chrome/106.0.0.0 Safari/537.36",WebKit,Chrome,106.0.0.0,Windows,10.0,se4hmv9t,agree,14571.70000000298,,,,"{""attractiveness"":76,""beauty"":75,""harmony"":77,""weight"":63}","[0,1,2,3]",76,75,77,63,H010
,,,,,multiple-slider,43,699638,0.0-4.0-39.0,10,1,2022-10-12 20:51:50,2047352bf9184260afd7af9ae9f812c9,199.126.118.165,"Mozilla/5.0 (Windows NT 10.0; Win64; x64) AppleWebKit/537.36 (KHTML, like Gecko) Chrome/106.0.0.0 Safari/537.36",WebKit,Chrome,106.0.0.0,Windows,10.0,se4hmv9t,agree,11075.89999999106,,,,"{""attractiveness"":84,""weight"":43,""harmony"":79,""beauty"":89}","[0,3,2,1]",84,89,79,43,H070
,,,,,multiple-slider,44,712550,0.0-4.0-40.0,10,1,2022-10-12 20:51:50,2047352bf9184260afd7af9ae9f812c9,199.126.118.165,"Mozilla/5.0 (Windows NT 10.0; Win64; x64) AppleWebKit/537.36 (KHTML, like Gecko) Chrome/106.0.0.0 Safari/537.36",WebKit,Chrome,106.0.0.0,Windows,10.0,se4hmv9t,agree,12908.70000000298,,,,"{""attractiveness"":89,""weight"":16,""beauty"":82,""harmony"":86}","[0,3,1,2]",89,82,86,16,H130
,,,,,multiple-slider,45,726078,0.0-4.0-41.0,10,1,2022-10-12 20:51:50,2047352bf9184260afd7af9ae9f812c9,199.126.118.165,"Mozilla/5.0 (Windows NT 10.0; Win64; x64) AppleWebKit/537.36 (KHTML, like Gecko) Chrome/106.0.0.0 Safari/537.36",WebKit,Chrome,106.0.0.0,Windows,10.0,se4hmv9t,agree,13523.29999999702,,,,"{""harmony"":63,""attractiveness"":54,""beauty"":64,""weight"":80}","[2,0,1,3]",54,64,63,80,T120
,,,,,multiple-slider,46,742198,0.0-4.0-42.0,10,1,2022-10-12 20:51:50,2047352bf9184260afd7af9ae9f812c9,199.126.118.165,"Mozilla/5.0 (Windows NT 10.0; Win64; x64) AppleWebKit/537.36 (KHTML, like Gecko) Chrome/106.0.0.0 Safari/537.36",WebKit,Chrome,106.0.0.0,Windows,10.0,se4hmv9t,agree,16115.89999999106,,,,"{""beauty"":89,""weight"":16,""attractiveness"":89,""harmony"":89}","[1,3,0,2]",89,89,89,16,H080
,,,,,multiple-slider,47,756550,0.0-4.0-43.0,10,1,2022-10-12 20:51:50,2047352bf9184260afd7af9ae9f812c9,199.126.118.165,"Mozilla/5.0 (Windows NT 10.0; Win64; x64) AppleWebKit/537.36 (KHTML, like Gecko) Chrome/106.0.0.0 Safari/537.36",WebKit,Chrome,106.0.0.0,Windows,10.0,se4hmv9t,agree,14348.29999999702,,,,"{""harmony"":86,""attractiveness"":73,""beauty"":74,""weight"":3}","[2,0,1,3]",73,74,86,3,H300
,,,,,multiple-slider,48,771606,0.0-4.0-44.0,10,1,2022-10-12 20:51:50,2047352bf9184260afd7af9ae9f812c9,199.126.118.165,"Mozilla/5.0 (Windows NT 10.0; Win64; x64) AppleWebKit/537.36 (KHTML, like Gecko) Chrome/106.0.0.0 Safari/537.36",WebKit,Chrome,106.0.0.0,Windows,10.0,se4hmv9t,agree,15051.699999988079,,,,"{""weight"":14,""attractiveness"":89,""harmony"":90,""beauty"":90}","[3,0,2,1]",89,90,90,14,H140
,,,,,multiple-slider,49,787342,0.0-4.0-45.0,10,1,2022-10-12 20:51:50,2047352bf9184260afd7af9ae9f812c9,199.126.118.165,"Mozilla/5.0 (Windows NT 10.0; Win64; x64) AppleWebKit/537.36 (KHTML, like Gecko) Chrome/106.0.0.0 Safari/537.36",WebKit,Chrome,106.0.0.0,Windows,10.0,se4hmv9t,agree,15732.39999999106,,,,"{""attractiveness"":57,""harmony"":58,""beauty"":64,""weight"":81}","[0,2,1,3]",57,64,58,81,T070
,,,,,multiple-slider,50,794926,0.0-4.0-46.0,10,1,2022-10-12 20:51:50,2047352bf9184260afd7af9ae9f812c9,199.126.118.165,"Mozilla/5.0 (Windows NT 10.0; Win64; x64) AppleWebKit/537.36 (KHTML, like Gecko) Chrome/106.0.0.0 Safari/537.36",WebKit,Chrome,106.0.0.0,Windows,10.0,se4hmv9t,agree,7579.9000000059605,,,,"{""harmony"":60,""beauty"":65,""attractiveness"":57,""weight"":82}","[2,1,0,3]",57,65,60,82,T090
,,,,,multiple-slider,51,804678,0.0-4.0-47.0,10,1,2022-10-12 20:51:50,2047352bf9184260afd7af9ae9f812c9,199.126.118.165,"Mozilla/5.0 (Windows NT 10.0; Win64; x64) AppleWebKit/537.36 (KHTML, like Gecko) Chrome/106.0.0.0 Safari/537.36",WebKit,Chrome,106.0.0.0,Windows,10.0,se4hmv9t,agree,9748.10000000894,,,,"{""beauty"":85,""attractiveness"":90,""weight"":7,""harmony"":90}","[1,0,3,2]",90,85,90,7,H160
,,,,,multiple-slider,52,825142,0.0-4.0-48.0,10,1,2022-10-12 20:51:50,2047352bf9184260afd7af9ae9f812c9,199.126.118.165,"Mozilla/5.0 (Windows NT 10.0; Win64; x64) AppleWebKit/537.36 (KHTML, like Gecko) Chrome/106.0.0.0 Safari/537.36",WebKit,Chrome,106.0.0.0,Windows,10.0,se4hmv9t,agree,20459.5,,,,"{""beauty"":56,""weight"":86,""harmony"":55,""attractiveness"":37}","[1,3,2,0]",37,56,55,86,T140
,,,,,multiple-slider,53,833126,0.0-4.0-49.0,10,1,2022-10-12 20:51:50,2047352bf9184260afd7af9ae9f812c9,199.126.118.165,"Mozilla/5.0 (Windows NT 10.0; Win64; x64) AppleWebKit/537.36 (KHTML, like Gecko) Chrome/106.0.0.0 Safari/537.36",WebKit,Chrome,106.0.0.0,Windows,10.0,se4hmv9t,agree,7980,,,,"{""weight"":85,""beauty"":58,""harmony"":57,""attractiveness"":35}","[3,1,2,0]",35,58,57,85,T170
,,,,,multiple-slider,54,845478,0.0-4.0-50.0,10,1,2022-10-12 20:51:50,2047352bf9184260afd7af9ae9f812c9,199.126.118.165,"Mozilla/5.0 (Windows NT 10.0; Win64; x64) AppleWebKit/537.36 (KHTML, like Gecko) Chrome/106.0.0.0 Safari/537.36",WebKit,Chrome,106.0.0.0,Windows,10.0,se4hmv9t,agree,12347.79999999702,,,,"{""beauty"":88,""attractiveness"":89,""weight"":11,""harmony"":89}","[1,0,3,2]",89,88,89,11,H120
,,,,,multiple-slider,55,855542,0.0-4.0-51.0,10,1,2022-10-12 20:51:50,2047352bf9184260afd7af9ae9f812c9,199.126.118.165,"Mozilla/5.0 (Windows NT 10.0; Win64; x64) AppleWebKit/537.36 (KHTML, like Gecko) Chrome/106.0.0.0 Safari/537.36",WebKit,Chrome,106.0.0.0,Windows,10.0,se4hmv9t,agree,10060.199999988079,,,,"{""weight"":31,""harmony"":88,""attractiveness"":73,""beauty"":87}","[3,2,0,1]",73,87,88,31,N000
,,,,,multiple-slider,56,869614,0.0-4.0-52.0,10,1,2022-10-12 20:51:50,2047352bf9184260afd7af9ae9f812c9,199.126.118.165,"Mozilla/5.0 (Windows NT 10.0; Win64; x64) AppleWebKit/537.36 (KHTML, like Gecko) Chrome/106.0.0.0 Safari/537.36",WebKit,Chrome,106.0.0.0,Windows,10.0,se4hmv9t,agree,14067.89999999106,,,,"{""weight"":56,""harmony"":81,""beauty"":89,""attractiveness"":71}","[3,2,1,0]",71,89,81,56,T060
,,,,,multiple-slider,57,884926,0.0-4.0-53.0,10,1,2022-10-12 20:51:50,2047352bf9184260afd7af9ae9f812c9,199.126.118.165,"Mozilla/5.0 (Windows NT 10.0; Win64; x64) AppleWebKit/537.36 (KHTML, like Gecko) Chrome/106.0.0.0 Safari/537.36",WebKit,Chrome,106.0.0.0,Windows,10.0,se4hmv9t,agree,15307.59999999404,,,,"{""harmony"":81,""attractiveness"":85,""weight"":9,""beauty"":74}","[2,0,3,1]",85,74,81,9,H280
,,,,,multiple-slider,58,892870,0.0-4.0-54.0,10,1,2022-10-12 20:51:50,2047352bf9184260afd7af9ae9f812c9,199.126.118.165,"Mozilla/5.0 (Windows NT 10.0; Win64; x64) AppleWebKit/537.36 (KHTML, like Gecko) Chrome/106.0.0.0 Safari/537.36",WebKit,Chrome,106.0.0.0,Windows,10.0,se4hmv9t,agree,7940.199999988079,,,,"{""weight"":18,""harmony"":93,""beauty"":92,""attractiveness"":91}","[3,2,1,0]",91,92,93,18,H060
,,,,,multiple-slider,59,901630,0.0-4.0-55.0,10,1,2022-10-12 20:51:50,2047352bf9184260afd7af9ae9f812c9,199.126.118.165,"Mozilla/5.0 (Windows NT 10.0; Win64; x64) AppleWebKit/537.36 (KHTML, like Gecko) Chrome/106.0.0.0 Safari/537.36",WebKit,Chrome,106.0.0.0,Windows,10.0,se4hmv9t,agree,8756.39999999106,,,,"{""harmony"":28,""weight"":91,""attractiveness"":25,""beauty"":25}","[2,3,0,1]",25,25,28,91,T190
,,,,,multiple-slider,60,910470,0.0-4.0-56.0,10,1,2022-10-12 20:51:50,2047352bf9184260afd7af9ae9f812c9,199.126.118.165,"Mozilla/5.0 (Windows NT 10.0; Win64; x64) AppleWebKit/537.36 (KHTML, like Gecko) Chrome/106.0.0.0 Safari/537.36",WebKit,Chrome,106.0.0.0,Windows,10.0,se4hmv9t,agree,8836.5,,,,"{""weight"":58,""harmony"":73,""attractiveness"":75,""beauty"":82}","[3,2,0,1]",75,82,73,58,H020
,,,,,multiple-slider,61,918206,0.0-4.0-57.0,10,1,2022-10-12 20:51:50,2047352bf9184260afd7af9ae9f812c9,199.126.118.165,"Mozilla/5.0 (Windows NT 10.0; Win64; x64) AppleWebKit/537.36 (KHTML, like Gecko) Chrome/106.0.0.0 Safari/537.36",WebKit,Chrome,106.0.0.0,Windows,10.0,se4hmv9t,agree,7731.5,,,,"{""attractiveness"":87,""weight"":15,""harmony"":88,""beauty"":87}","[0,3,2,1]",87,87,88,15,H150
,,,,,multiple-slider,62,928742,0.0-4.0-58.0,10,1,2022-10-12 20:51:50,2047352bf9184260afd7af9ae9f812c9,199.126.118.165,"Mozilla/5.0 (Windows NT 10.0; Win64; x64) AppleWebKit/537.36 (KHTML, like Gecko) Chrome/106.0.0.0 Safari/537.36",WebKit,Chrome,106.0.0.0,Windows,10.0,se4hmv9t,agree,10531.20000000298,,,,"{""weight"":83,""beauty"":37,""attractiveness"":35,""harmony"":36}","[3,1,0,2]",35,37,36,83,T160
,,,,,multiple-slider,63,936830,0.0-4.0-59.0,10,1,2022-10-12 20:51:50,2047352bf9184260afd7af9ae9f812c9,199.126.118.165,"Mozilla/5.0 (Windows NT 10.0; Win64; x64) AppleWebKit/537.36 (KHTML, like Gecko) Chrome/106.0.0.0 Safari/537.36",WebKit,Chrome,106.0.0.0,Windows,10.0,se4hmv9t,agree,8083.79999999702,,,,"{""weight"":24,""harmony"":77,""beauty"":81,""attractiveness"":84}","[3,2,1,0]",84,81,77,24,H030
,,,,,multiple-slider,64,945230,0.0-4.0-60.0,10,1,2022-10-12 20:51:50,2047352bf9184260afd7af9ae9f812c9,199.126.118.165,"Mozilla/5.0 (Windows NT 10.0; Win64; x64) AppleWebKit/537.36 (KHTML, like Gecko) Chrome/106.0.0.0 Safari/537.36",WebKit,Chrome,106.0.0.0,Windows,10.0,se4hmv9t,agree,8395.59999999404,,,,"{""weight"":6,""harmony"":73,""beauty"":69,""attractiveness"":78}","[3,2,1,0]",78,69,73,6,H260
,,,,,external-html,65,977071,0.0-5.0,10,1,2022-10-12 20:51:50,2047352bf9184260afd7af9ae9f812c9,199.126.118.165,"Mozilla/5.0 (Windows NT 10.0; Win64; x64) AppleWebKit/537.36 (KHTML, like Gecko) Chrome/106.0.0.0 Safari/537.36",WebKit,Chrome,106.0.0.0,Windows,10.0,se4hmv9t,agree,31477.90000000596,debriefing.html,,,,,,,,,
true,false,[],[],[],preload,0,1126,0.0-0.0,14,1,2022-10-12 21:13:52,2047352bf9184260afd7af9ae9f812c9,107.142.215.204,"Mozilla/5.0 (Macintosh; Intel Mac OS X 10_15_7) AppleWebKit/537.36 (KHTML, like Gecko) Chrome/105.0.0.0 Safari/537.36",Macintosh,Chrome,105.0.0.0,OS X,10_15_7,4pcj128e,agree,,,,,,,,,,,
,,,,,external-html,1,4086,0.0-1.0,14,1,2022-10-12 21:13:52,2047352bf9184260afd7af9ae9f812c9,107.142.215.204,"Mozilla/5.0 (Macintosh; Intel Mac OS X 10_15_7) AppleWebKit/537.36 (KHTML, like Gecko) Chrome/105.0.0.0 Safari/537.36",Macintosh,Chrome,105.0.0.0,OS X,10_15_7,4pcj128e,agree,2673,consent.html,,,,,,,,,
,,,,,survey-text,2,22594,0.0-2.0,14,1,2022-10-12 21:13:52,2047352bf9184260afd7af9ae9f812c9,107.142.215.204,"Mozilla/5.0 (Macintosh; Intel Mac OS X 10_15_7) AppleWebKit/537.36 (KHTML, like Gecko) Chrome/105.0.0.0 Safari/537.36",Macintosh,Chrome,105.0.0.0,OS X,10_15_7,4pcj128e,agree,18498.699999928474,,"{""prolID"":""5608a73fd7def20012b7389d"",""age"":""34"",""weight"":""157"",""height"":""5.11"",""mh"":""N/A""}",,,,,,,,
,,,,,instructions,3,79576,0.0-3.0,14,1,2022-10-12 21:13:52,2047352bf9184260afd7af9ae9f812c9,107.142.215.204,"Mozilla/5.0 (Macintosh; Intel Mac OS X 10_15_7) AppleWebKit/537.36 (KHTML, like Gecko) Chrome/105.0.0.0 Safari/537.36",Macintosh,Chrome,105.0.0.0,OS X,10_15_7,4pcj128e,agree,56983.39999997616,,,"[{""page_index"":0,""viewing_time"":2693},{""page_index"":1,""viewing_time"":8177.599999904633},{""page_index"":2,""viewing_time"":25979.200000047684},{""page_index"":3,""viewing_time"":20132}]",,,,,,,
,,,,,multiple-slider,4,99423,0.0-4.0-0.0,14,1,2022-10-12 21:13:52,2047352bf9184260afd7af9ae9f812c9,107.142.215.204,"Mozilla/5.0 (Macintosh; Intel Mac OS X 10_15_7) AppleWebKit/537.36 (KHTML, like Gecko) Chrome/105.0.0.0 Safari/537.36",Macintosh,Chrome,105.0.0.0,OS X,10_15_7,4pcj128e,agree,19841,,,,"{""harmony"":92,""weight"":54,""attractiveness"":73,""beauty"":53}","[2,3,0,1]",73,53,92,54,H010
,,,,,multiple-slider,5,109932,0.0-4.0-1.0,14,1,2022-10-12 21:13:52,2047352bf9184260afd7af9ae9f812c9,107.142.215.204,"Mozilla/5.0 (Macintosh; Intel Mac OS X 10_15_7) AppleWebKit/537.36 (KHTML, like Gecko) Chrome/105.0.0.0 Safari/537.36",Macintosh,Chrome,105.0.0.0,OS X,10_15_7,4pcj128e,agree,10503.099999904633,,,,"{""weight"":81,""harmony"":80,""beauty"":55,""attractiveness"":56}","[3,2,1,0]",56,55,80,81,T120
,,,,,multiple-slider,6,120149,0.0-4.0-2.0,14,1,2022-10-12 21:13:52,2047352bf9184260afd7af9ae9f812c9,107.142.215.204,"Mozilla/5.0 (Macintosh; Intel Mac OS X 10_15_7) AppleWebKit/537.36 (KHTML, like Gecko) Chrome/105.0.0.0 Safari/537.36",Macintosh,Chrome,105.0.0.0,OS X,10_15_7,4pcj128e,agree,10209.799999952316,,,,"{""beauty"":59,""attractiveness"":58,""harmony"":79,""weight"":56}","[1,0,2,3]",58,59,79,56,T050
,,,,,multiple-slider,7,133268,0.0-4.0-3.0,14,1,2022-10-12 21:13:52,2047352bf9184260afd7af9ae9f812c9,107.142.215.204,"Mozilla/5.0 (Macintosh; Intel Mac OS X 10_15_7) AppleWebKit/537.36 (KHTML, like Gecko) Chrome/105.0.0.0 Safari/537.36",Macintosh,Chrome,105.0.0.0,OS X,10_15_7,4pcj128e,agree,13111.899999976158,,,,"{""attractiveness"":75,""harmony"":80,""weight"":0,""beauty"":62}","[0,2,3,1]",75,62,80,0,H280
,,,,,multiple-slider,8,141740,0.0-4.0-4.0,14,1,2022-10-12 21:13:52,2047352bf9184260afd7af9ae9f812c9,107.142.215.204,"Mozilla/5.0 (Macintosh; Intel Mac OS X 10_15_7) AppleWebKit/537.36 (KHTML, like Gecko) Chrome/105.0.0.0 Safari/537.36",Macintosh,Chrome,105.0.0.0,OS X,10_15_7,4pcj128e,agree,8464.800000071526,,,,"{""beauty"":68,""harmony"":71,""weight"":3,""attractiveness"":66}","[1,2,3,0]",66,68,71,3,H240
,,,,,multiple-slider,9,151345,0.0-4.0-5.0,14,1,2022-10-12 21:13:52,2047352bf9184260afd7af9ae9f812c9,107.142.215.204,"Mozilla/5.0 (Macintosh; Intel Mac OS X 10_15_7) AppleWebKit/537.36 (KHTML, like Gecko) Chrome/105.0.0.0 Safari/537.36",Macintosh,Chrome,105.0.0.0,OS X,10_15_7,4pcj128e,agree,9597.799999952316,,,,"{""weight"":34,""attractiveness"":84,""beauty"":83,""harmony"":83}","[3,0,1,2]",84,83,83,34,H100
,,,,,multiple-slider,10,158814,0.0-4.0-6.0,14,1,2022-10-12 21:13:52,2047352bf9184260afd7af9ae9f812c9,107.142.215.204,"Mozilla/5.0 (Macintosh; Intel Mac OS X 10_15_7) AppleWebKit/537.36 (KHTML, like Gecko) Chrome/105.0.0.0 Safari/537.36",Macintosh,Chrome,105.0.0.0,OS X,10_15_7,4pcj128e,agree,7461.099999904633,,,,"{""weight"":9,""attractiveness"":70,""beauty"":71,""harmony"":76}","[3,0,1,2]",70,71,76,9,H290
,,,,,multiple-slider,11,170269,0.0-4.0-7.0,14,1,2022-10-12 21:13:52,2047352bf9184260afd7af9ae9f812c9,107.142.215.204,"Mozilla/5.0 (Macintosh; Intel Mac OS X 10_15_7) AppleWebKit/537.36 (KHTML, like Gecko) Chrome/105.0.0.0 Safari/537.36",Macintosh,Chrome,105.0.0.0,OS X,10_15_7,4pcj128e,agree,11449,,,,"{""harmony"":32,""attractiveness"":26,""weight"":100,""beauty"":36}","[2,0,3,1]",26,36,32,100,T250
,,,,,multiple-slider,12,177689,0.0-4.0-8.0,14,1,2022-10-12 21:13:52,2047352bf9184260afd7af9ae9f812c9,107.142.215.204,"Mozilla/5.0 (Macintosh; Intel Mac OS X 10_15_7) AppleWebKit/537.36 (KHTML, like Gecko) Chrome/105.0.0.0 Safari/537.36",Macintosh,Chrome,105.0.0.0,OS X,10_15_7,4pcj128e,agree,7413.399999976158,,,,"{""weight"":33,""attractiveness"":66,""beauty"":70,""harmony"":75}","[3,0,1,2]",66,70,75,33,H110
,,,,,multiple-slider,13,186104,0.0-4.0-9.0,14,1,2022-10-12 21:13:52,2047352bf9184260afd7af9ae9f812c9,107.142.215.204,"Mozilla/5.0 (Macintosh; Intel Mac OS X 10_15_7) AppleWebKit/537.36 (KHTML, like Gecko) Chrome/105.0.0.0 Safari/537.36",Macintosh,Chrome,105.0.0.0,OS X,10_15_7,4pcj128e,agree,8409.600000023842,,,,"{""attractiveness"":53,""weight"":53,""beauty"":58,""harmony"":56}","[0,3,1,2]",53,58,56,53,T040
,,,,,multiple-slider,14,193506,0.0-4.0-10.0,14,1,2022-10-12 21:13:52,2047352bf9184260afd7af9ae9f812c9,107.142.215.204,"Mozilla/5.0 (Macintosh; Intel Mac OS X 10_15_7) AppleWebKit/537.36 (KHTML, like Gecko) Chrome/105.0.0.0 Safari/537.36",Macintosh,Chrome,105.0.0.0,OS X,10_15_7,4pcj128e,agree,7394.699999928474,,,,"{""weight"":94,""attractiveness"":30,""beauty"":34,""harmony"":23}","[3,0,1,2]",30,34,23,94,T200
,,,,,multiple-slider,15,199753,0.0-4.0-11.0,14,1,2022-10-12 21:13:52,2047352bf9184260afd7af9ae9f812c9,107.142.215.204,"Mozilla/5.0 (Macintosh; Intel Mac OS X 10_15_7) AppleWebKit/537.36 (KHTML, like Gecko) Chrome/105.0.0.0 Safari/537.36",Macintosh,Chrome,105.0.0.0,OS X,10_15_7,4pcj128e,agree,6239.899999976158,,,,"{""harmony"":76,""beauty"":70,""attractiveness"":69,""weight"":12}","[2,1,0,3]",69,70,76,12,H190
,,,,,multiple-slider,16,213622,0.0-4.0-12.0,14,1,2022-10-12 21:13:52,2047352bf9184260afd7af9ae9f812c9,107.142.215.204,"Mozilla/5.0 (Macintosh; Intel Mac OS X 10_15_7) AppleWebKit/537.36 (KHTML, like Gecko) Chrome/105.0.0.0 Safari/537.36",Macintosh,Chrome,105.0.0.0,OS X,10_15_7,4pcj128e,agree,13862.700000047684,,,,"{""harmony"":75,""weight"":31,""attractiveness"":74,""beauty"":76}","[2,3,0,1]",74,76,75,31,H080
,,,,,multiple-slider,17,223243,0.0-4.0-13.0,14,1,2022-10-12 21:13:52,2047352bf9184260afd7af9ae9f812c9,107.142.215.204,"Mozilla/5.0 (Macintosh; Intel Mac OS X 10_15_7) AppleWebKit/537.36 (KHTML, like Gecko) Chrome/105.0.0.0 Safari/537.36",Macintosh,Chrome,105.0.0.0,OS X,10_15_7,4pcj128e,agree,9614.700000047684,,,,"{""harmony"":71,""weight"":43,""attractiveness"":70,""beauty"":74}","[2,3,0,1]",70,74,71,43,T010
,,,,,multiple-slider,18,230826,0.0-4.0-14.0,14,1,2022-10-12 21:13:52,2047352bf9184260afd7af9ae9f812c9,107.142.215.204,"Mozilla/5.0 (Macintosh; Intel Mac OS X 10_15_7) AppleWebKit/537.36 (KHTML, like Gecko) Chrome/105.0.0.0 Safari/537.36",Macintosh,Chrome,105.0.0.0,OS X,10_15_7,4pcj128e,agree,7576.100000023842,,,,"{""harmony"":82,""beauty"":83,""weight"":20,""attractiveness"":82}","[2,1,3,0]",82,83,82,20,H150
,,,,,multiple-slider,19,241255,0.0-4.0-15.0,14,1,2022-10-12 21:13:52,2047352bf9184260afd7af9ae9f812c9,107.142.215.204,"Mozilla/5.0 (Macintosh; Intel Mac OS X 10_15_7) AppleWebKit/537.36 (KHTML, like Gecko) Chrome/105.0.0.0 Safari/537.36",Macintosh,Chrome,105.0.0.0,OS X,10_15_7,4pcj128e,agree,10421.200000047684,,,,"{""attractiveness"":73,""beauty"":69,""harmony"":76,""weight"":37}","[0,1,2,3]",73,69,76,37,H050
,,,,,multiple-slider,20,248902,0.0-4.0-16.0,14,1,2022-10-12 21:13:52,2047352bf9184260afd7af9ae9f812c9,107.142.215.204,"Mozilla/5.0 (Macintosh; Intel Mac OS X 10_15_7) AppleWebKit/537.36 (KHTML, like Gecko) Chrome/105.0.0.0 Safari/537.36",Macintosh,Chrome,105.0.0.0,OS X,10_15_7,4pcj128e,agree,7640.699999928474,,,,"{""harmony"":73,""beauty"":69,""weight"":39,""attractiveness"":65}","[2,1,3,0]",65,69,73,39,H130
,,,,,multiple-slider,21,255092,0.0-4.0-17.0,14,1,2022-10-12 21:13:52,2047352bf9184260afd7af9ae9f812c9,107.142.215.204,"Mozilla/5.0 (Macintosh; Intel Mac OS X 10_15_7) AppleWebKit/537.36 (KHTML, like Gecko) Chrome/105.0.0.0 Safari/537.36",Macintosh,Chrome,105.0.0.0,OS X,10_15_7,4pcj128e,agree,6182.5,,,,"{""beauty"":69,""harmony"":79,""attractiveness"":69,""weight"":13}","[1,2,0,3]",69,69,79,13,H250
,,,,,multiple-slider,22,261419,0.0-4.0-18.0,14,1,2022-10-12 21:13:52,2047352bf9184260afd7af9ae9f812c9,107.142.215.204,"Mozilla/5.0 (Macintosh; Intel Mac OS X 10_15_7) AppleWebKit/537.36 (KHTML, like Gecko) Chrome/105.0.0.0 Safari/537.36",Macintosh,Chrome,105.0.0.0,OS X,10_15_7,4pcj128e,agree,6319,,,,"{""harmony"":17,""attractiveness"":32,""beauty"":33,""weight"":100}","[2,0,1,3]",32,33,17,100,T230
,,,,,multiple-slider,23,269254,0.0-4.0-19.0,14,1,2022-10-12 21:13:52,2047352bf9184260afd7af9ae9f812c9,107.142.215.204,"Mozilla/5.0 (Macintosh; Intel Mac OS X 10_15_7) AppleWebKit/537.36 (KHTML, like Gecko) Chrome/105.0.0.0 Safari/537.36",Macintosh,Chrome,105.0.0.0,OS X,10_15_7,4pcj128e,agree,7828.400000095367,,,,"{""harmony"":75,""weight"":37,""beauty"":73,""attractiveness"":69}","[2,3,1,0]",69,73,75,37,H070
,,,,,multiple-slider,24,279023,0.0-4.0-20.0,14,1,2022-10-12 21:13:52,2047352bf9184260afd7af9ae9f812c9,107.142.215.204,"Mozilla/5.0 (Macintosh; Intel Mac OS X 10_15_7) AppleWebKit/537.36 (KHTML, like Gecko) Chrome/105.0.0.0 Safari/537.36",Macintosh,Chrome,105.0.0.0,OS X,10_15_7,4pcj128e,agree,9760.800000071526,,,,"{""weight"":41,""attractiveness"":71,""beauty"":69,""harmony"":70}","[3,0,1,2]",71,69,70,41,H030
,,,,,multiple-slider,25,292844,0.0-4.0-21.0,14,1,2022-10-12 21:13:52,2047352bf9184260afd7af9ae9f812c9,107.142.215.204,"Mozilla/5.0 (Macintosh; Intel Mac OS X 10_15_7) AppleWebKit/537.36 (KHTML, like Gecko) Chrome/105.0.0.0 Safari/537.36",Macintosh,Chrome,105.0.0.0,OS X,10_15_7,4pcj128e,agree,13815.899999976158,,,,"{""attractiveness"":42,""harmony"":49,""weight"":75,""beauty"":41}","[0,2,3,1]",42,41,49,75,T130
,,,,,multiple-slider,26,299055,0.0-4.0-22.0,14,1,2022-10-12 21:13:52,2047352bf9184260afd7af9ae9f812c9,107.142.215.204,"Mozilla/5.0 (Macintosh; Intel Mac OS X 10_15_7) AppleWebKit/537.36 (KHTML, like Gecko) Chrome/105.0.0.0 Safari/537.36",Macintosh,Chrome,105.0.0.0,OS X,10_15_7,4pcj128e,agree,6203.5,,,,"{""weight"":76,""beauty"":46,""attractiveness"":45,""harmony"":42}","[3,1,0,2]",45,46,42,76,T140
,,,,,multiple-slider,27,304993,0.0-4.0-23.0,14,1,2022-10-12 21:13:52,2047352bf9184260afd7af9ae9f812c9,107.142.215.204,"Mozilla/5.0 (Macintosh; Intel Mac OS X 10_15_7) AppleWebKit/537.36 (KHTML, like Gecko) Chrome/105.0.0.0 Safari/537.36",Macintosh,Chrome,105.0.0.0,OS X,10_15_7,4pcj128e,agree,5932.399999976158,,,,"{""weight"":100,""harmony"":0,""attractiveness"":0,""beauty"":0}","[3,2,0,1]",0,0,0,100,T280
,,,,,multiple-slider,28,313684,0.0-4.0-24.0,14,1,2022-10-12 21:13:52,2047352bf9184260afd7af9ae9f812c9,107.142.215.204,"Mozilla/5.0 (Macintosh; Intel Mac OS X 10_15_7) AppleWebKit/537.36 (KHTML, like Gecko) Chrome/105.0.0.0 Safari/537.36",Macintosh,Chrome,105.0.0.0,OS X,10_15_7,4pcj128e,agree,8684.300000071526,,,,"{""weight"":40,""attractiveness"":78,""beauty"":67,""harmony"":76}","[3,0,1,2]",78,67,76,40,H060
,,,,,multiple-slider,29,319197,0.0-4.0-25.0,14,1,2022-10-12 21:13:52,2047352bf9184260afd7af9ae9f812c9,107.142.215.204,"Mozilla/5.0 (Macintosh; Intel Mac OS X 10_15_7) AppleWebKit/537.36 (KHTML, like Gecko) Chrome/105.0.0.0 Safari/537.36",Macintosh,Chrome,105.0.0.0,OS X,10_15_7,4pcj128e,agree,5505.5,,,,"{""weight"":0,""beauty"":56,""attractiveness"":59,""harmony"":64}","[3,1,0,2]",59,56,64,0,H300
,,,,,multiple-slider,30,327155,0.0-4.0-26.0,14,1,2022-10-12 21:13:52,2047352bf9184260afd7af9ae9f812c9,107.142.215.204,"Mozilla/5.0 (Macintosh; Intel Mac OS X 10_15_7) AppleWebKit/537.36 (KHTML, like Gecko) Chrome/105.0.0.0 Safari/537.36",Macintosh,Chrome,105.0.0.0,OS X,10_15_7,4pcj128e,agree,7950.400000095367,,,,"{""harmony"":55,""beauty"":57,""attractiveness"":58,""weight"":11}","[2,1,0,3]",58,57,55,11,H220
,,,,,multiple-slider,31,332708,0.0-4.0-27.0,14,1,2022-10-12 21:13:52,2047352bf9184260afd7af9ae9f812c9,107.142.215.204,"Mozilla/5.0 (Macintosh; Intel Mac OS X 10_15_7) AppleWebKit/537.36 (KHTML, like Gecko) Chrome/105.0.0.0 Safari/537.36",Macintosh,Chrome,105.0.0.0,OS X,10_15_7,4pcj128e,agree,5544,,,,"{""weight"":7,""harmony"":56,""beauty"":56,""attractiveness"":56}","[3,2,1,0]",56,56,56,7,H210
,,,,,multiple-slider,32,348469,0.0-4.0-28.0,14,1,2022-10-12 21:13:52,2047352bf9184260afd7af9ae9f812c9,107.142.215.204,"Mozilla/5.0 (Macintosh; Intel Mac OS X 10_15_7) AppleWebKit/537.36 (KHTML, like Gecko) Chrome/105.0.0.0 Safari/537.36",Macintosh,Chrome,105.0.0.0,OS X,10_15_7,4pcj128e,agree,15753.100000023842,,,,"{""attractiveness"":13,""harmony"":0,""beauty"":0,""weight"":100}","[0,2,1,3]",13,0,0,100,T300
,,,,,multiple-slider,33,356068,0.0-4.0-29.0,14,1,2022-10-12 21:13:52,2047352bf9184260afd7af9ae9f812c9,107.142.215.204,"Mozilla/5.0 (Macintosh; Intel Mac OS X 10_15_7) AppleWebKit/537.36 (KHTML, like Gecko) Chrome/105.0.0.0 Safari/537.36",Macintosh,Chrome,105.0.0.0,OS X,10_15_7,4pcj128e,agree,7591.5,,,,"{""beauty"":39,""weight"":93,""harmony"":39,""attractiveness"":37}","[1,3,2,0]",37,39,39,93,T190
,,,,,multiple-slider,34,363675,0.0-4.0-30.0,14,1,2022-10-12 21:13:52,2047352bf9184260afd7af9ae9f812c9,107.142.215.204,"Mozilla/5.0 (Macintosh; Intel Mac OS X 10_15_7) AppleWebKit/537.36 (KHTML, like Gecko) Chrome/105.0.0.0 Safari/537.36",Macintosh,Chrome,105.0.0.0,OS X,10_15_7,4pcj128e,agree,7600.600000023842,,,,"{""harmony"":45,""beauty"":45,""weight"":65,""attractiveness"":43}","[2,1,3,0]",43,45,45,65,T100
,,,,,multiple-slider,35,371504,0.0-4.0-31.0,14,1,2022-10-12 21:13:52,2047352bf9184260afd7af9ae9f812c9,107.142.215.204,"Mozilla/5.0 (Macintosh; Intel Mac OS X 10_15_7) AppleWebKit/537.36 (KHTML, like Gecko) Chrome/105.0.0.0 Safari/537.36",Macintosh,Chrome,105.0.0.0,OS X,10_15_7,4pcj128e,agree,7821.799999952316,,,,"{""weight"":46,""harmony"":64,""attractiveness"":58,""beauty"":59}","[3,2,0,1]",58,59,64,46,H020
,,,,,multiple-slider,36,378239,0.0-4.0-32.0,14,1,2022-10-12 21:13:52,2047352bf9184260afd7af9ae9f812c9,107.142.215.204,"Mozilla/5.0 (Macintosh; Intel Mac OS X 10_15_7) AppleWebKit/537.36 (KHTML, like Gecko) Chrome/105.0.0.0 Safari/537.36",Macintosh,Chrome,105.0.0.0,OS X,10_15_7,4pcj128e,agree,6726.900000095367,,,,"{""beauty"":65,""weight"":22,""harmony"":64,""attractiveness"":63}","[1,3,2,0]",63,65,64,22,H090
,,,,,multiple-slider,37,393322,0.0-4.0-33.0,14,1,2022-10-12 21:13:52,2047352bf9184260afd7af9ae9f812c9,107.142.215.204,"Mozilla/5.0 (Macintosh; Intel Mac OS X 10_15_7) AppleWebKit/537.36 (KHTML, like Gecko) Chrome/105.0.0.0 Safari/537.36",Macintosh,Chrome,105.0.0.0,OS X,10_15_7,4pcj128e,agree,15075.600000023842,,,,"{""beauty"":42,""attractiveness"":43,""harmony"":54,""weight"":78}","[1,0,2,3]",43,42,54,78,T110
,,,,,multiple-slider,38,400768,0.0-4.0-34.0,14,1,2022-10-12 21:13:52,2047352bf9184260afd7af9ae9f812c9,107.142.215.204,"Mozilla/5.0 (Macintosh; Intel Mac OS X 10_15_7) AppleWebKit/537.36 (KHTML, like Gecko) Chrome/105.0.0.0 Safari/537.36",Macintosh,Chrome,105.0.0.0,OS X,10_15_7,4pcj128e,agree,7437.699999928474,,,,"{""attractiveness"":57,""weight"":44,""harmony"":57,""beauty"":57}","[0,3,2,1]",57,57,57,44,T020
,,,,,multiple-slider,39,408514,0.0-4.0-35.0,14,1,2022-10-12 21:13:52,2047352bf9184260afd7af9ae9f812c9,107.142.215.204,"Mozilla/5.0 (Macintosh; Intel Mac OS X 10_15_7) AppleWebKit/537.36 (KHTML, like Gecko) Chrome/105.0.0.0 Safari/537.36",Macintosh,Chrome,105.0.0.0,OS X,10_15_7,4pcj128e,agree,7738,,,,"{""attractiveness"":38,""weight"":75,""harmony"":41,""beauty"":41}","[0,3,2,1]",38,41,41,75,T170
,,,,,multiple-slider,40,416122,0.0-4.0-36.0,14,1,2022-10-12 21:13:52,2047352bf9184260afd7af9ae9f812c9,107.142.215.204,"Mozilla/5.0 (Macintosh; Intel Mac OS X 10_15_7) AppleWebKit/537.36 (KHTML, like Gecko) Chrome/105.0.0.0 Safari/537.36",Macintosh,Chrome,105.0.0.0,OS X,10_15_7,4pcj128e,agree,7599.699999928474,,,,"{""harmony"":30,""beauty"":30,""attractiveness"":30,""weight"":80}","[2,1,0,3]",30,30,30,80,T180
,,,,,multiple-slider,41,423248,0.0-4.0-37.0,14,1,2022-10-12 21:13:52,2047352bf9184260afd7af9ae9f812c9,107.142.215.204,"Mozilla/5.0 (Macintosh; Intel Mac OS X 10_15_7) AppleWebKit/537.36 (KHTML, like Gecko) Chrome/105.0.0.0 Safari/537.36",Macintosh,Chrome,105.0.0.0,OS X,10_15_7,4pcj128e,agree,7119.899999976158,,,,"{""attractiveness"":59,""weight"":45,""beauty"":58,""harmony"":58}","[0,3,1,2]",59,58,58,45,T030
,,,,,multiple-slider,42,428752,0.0-4.0-38.0,14,1,2022-10-12 21:13:52,2047352bf9184260afd7af9ae9f812c9,107.142.215.204,"Mozilla/5.0 (Macintosh; Intel Mac OS X 10_15_7) AppleWebKit/537.36 (KHTML, like Gecko) Chrome/105.0.0.0 Safari/537.36",Macintosh,Chrome,105.0.0.0,OS X,10_15_7,4pcj128e,agree,5495.399999976158,,,,"{""weight"":15,""beauty"":67,""harmony"":70,""attractiveness"":72}","[3,1,2,0]",72,67,70,15,H180
,,,,,multiple-slider,43,435193,0.0-4.0-39.0,14,1,2022-10-12 21:13:52,2047352bf9184260afd7af9ae9f812c9,107.142.215.204,"Mozilla/5.0 (Macintosh; Intel Mac OS X 10_15_7) AppleWebKit/537.36 (KHTML, like Gecko) Chrome/105.0.0.0 Safari/537.36",Macintosh,Chrome,105.0.0.0,OS X,10_15_7,4pcj128e,agree,6432.299999952316,,,,"{""harmony"":0,""beauty"":0,""weight"":100,""attractiveness"":2}","[2,1,3,0]",2,0,0,100,T260
,,,,,multiple-slider,44,442181,0.0-4.0-40.0,14,1,2022-10-12 21:13:52,2047352bf9184260afd7af9ae9f812c9,107.142.215.204,"Mozilla/5.0 (Macintosh; Intel Mac OS X 10_15_7) AppleWebKit/537.36 (KHTML, like Gecko) Chrome/105.0.0.0 Safari/537.36",Macintosh,Chrome,105.0.0.0,OS X,10_15_7,4pcj128e,agree,6978.399999976158,,,,"{""harmony"":67,""weight"":0,""beauty"":62,""attractiveness"":61}","[2,3,1,0]",61,62,67,0,H260
,,,,,multiple-slider,45,449145,0.0-4.0-41.0,14,1,2022-10-12 21:13:52,2047352bf9184260afd7af9ae9f812c9,107.142.215.204,"Mozilla/5.0 (Macintosh; Intel Mac OS X 10_15_7) AppleWebKit/537.36 (KHTML, like Gecko) Chrome/105.0.0.0 Safari/537.36",Macintosh,Chrome,105.0.0.0,OS X,10_15_7,4pcj128e,agree,6955.100000023842,,,,"{""harmony"":53,""weight"":46,""attractiveness"":55,""beauty"":58}","[2,3,0,1]",55,58,53,46,T060
,,,,,multiple-slider,46,457502,0.0-4.0-42.0,14,1,2022-10-12 21:13:52,2047352bf9184260afd7af9ae9f812c9,107.142.215.204,"Mozilla/5.0 (Macintosh; Intel Mac OS X 10_15_7) AppleWebKit/537.36 (KHTML, like Gecko) Chrome/105.0.0.0 Safari/537.36",Macintosh,Chrome,105.0.0.0,OS X,10_15_7,4pcj128e,agree,8349.399999976158,,,,"{""beauty"":83,""weight"":18,""harmony"":82,""attractiveness"":80}","[1,3,2,0]",80,83,82,18,H200
,,,,,multiple-slider,47,463380,0.0-4.0-43.0,14,1,2022-10-12 21:13:52,2047352bf9184260afd7af9ae9f812c9,107.142.215.204,"Mozilla/5.0 (Macintosh; Intel Mac OS X 10_15_7) AppleWebKit/537.36 (KHTML, like Gecko) Chrome/105.0.0.0 Safari/537.36",Macintosh,Chrome,105.0.0.0,OS X,10_15_7,4pcj128e,agree,5870.399999976158,,,,"{""attractiveness"":0,""harmony"":0,""weight"":99,""beauty"":8}","[0,2,3,1]",0,8,0,99,T240
,,,,,multiple-slider,48,472039,0.0-4.0-44.0,14,1,2022-10-12 21:13:52,2047352bf9184260afd7af9ae9f812c9,107.142.215.204,"Mozilla/5.0 (Macintosh; Intel Mac OS X 10_15_7) AppleWebKit/537.36 (KHTML, like Gecko) Chrome/105.0.0.0 Safari/537.36",Macintosh,Chrome,105.0.0.0,OS X,10_15_7,4pcj128e,agree,8650.600000023842,,,,"{""attractiveness"":0,""weight"":100,""beauty"":0,""harmony"":0}","[0,3,1,2]",0,0,0,100,T210
,,,,,multiple-slider,49,479761,0.0-4.0-45.0,14,1,2022-10-12 21:13:52,2047352bf9184260afd7af9ae9f812c9,107.142.215.204,"Mozilla/5.0 (Macintosh; Intel Mac OS X 10_15_7) AppleWebKit/537.36 (KHTML, like Gecko) Chrome/105.0.0.0 Safari/537.36",Macintosh,Chrome,105.0.0.0,OS X,10_15_7,4pcj128e,agree,7714,,,,"{""attractiveness"":0,""harmony"":0,""beauty"":0,""weight"":100}","[0,2,1,3]",0,0,0,100,T220
,,,,,multiple-slider,50,492865,0.0-4.0-46.0,14,1,2022-10-12 21:13:52,2047352bf9184260afd7af9ae9f812c9,107.142.215.204,"Mozilla/5.0 (Macintosh; Intel Mac OS X 10_15_7) AppleWebKit/537.36 (KHTML, like Gecko) Chrome/105.0.0.0 Safari/537.36",Macintosh,Chrome,105.0.0.0,OS X,10_15_7,4pcj128e,agree,13096,,,,"{""attractiveness"":83,""harmony"":82,""weight"":18,""beauty"":80}","[0,2,3,1]",83,80,82,18,H120
,,,,,multiple-slider,51,503685,0.0-4.0-47.0,14,1,2022-10-12 21:13:52,2047352bf9184260afd7af9ae9f812c9,107.142.215.204,"Mozilla/5.0 (Macintosh; Intel Mac OS X 10_15_7) AppleWebKit/537.36 (KHTML, like Gecko) Chrome/105.0.0.0 Safari/537.36",Macintosh,Chrome,105.0.0.0,OS X,10_15_7,4pcj128e,agree,10811.699999928474,,,,"{""weight"":41,""attractiveness"":79,""beauty"":75,""harmony"":69}","[3,0,1,2]",79,75,69,41,H040
,,,,,multiple-slider,52,512654,0.0-4.0-48.0,14,1,2022-10-12 21:13:52,2047352bf9184260afd7af9ae9f812c9,107.142.215.204,"Mozilla/5.0 (Macintosh; Intel Mac OS X 10_15_7) AppleWebKit/537.36 (KHTML, like Gecko) Chrome/105.0.0.0 Safari/537.36",Macintosh,Chrome,105.0.0.0,OS X,10_15_7,4pcj128e,agree,8959.200000047684,,,,"{""harmony"":40,""attractiveness"":40,""beauty"":40,""weight"":58}","[2,0,1,3]",40,40,40,58,T080
,,,,,multiple-slider,53,519658,0.0-4.0-49.0,14,1,2022-10-12 21:13:52,2047352bf9184260afd7af9ae9f812c9,107.142.215.204,"Mozilla/5.0 (Macintosh; Intel Mac OS X 10_15_7) AppleWebKit/537.36 (KHTML, like Gecko) Chrome/105.0.0.0 Safari/537.36",Macintosh,Chrome,105.0.0.0,OS X,10_15_7,4pcj128e,agree,6996.600000023842,,,,"{""harmony"":79,""attractiveness"":79,""beauty"":78,""weight"":23}","[2,0,1,3]",79,78,79,23,H170
,,,,,multiple-slider,54,525733,0.0-4.0-50.0,14,1,2022-10-12 21:13:52,2047352bf9184260afd7af9ae9f812c9,107.142.215.204,"Mozilla/5.0 (Macintosh; Intel Mac OS X 10_15_7) AppleWebKit/537.36 (KHTML, like Gecko) Chrome/105.0.0.0 Safari/537.36",Macintosh,Chrome,105.0.0.0,OS X,10_15_7,4pcj128e,agree,6066.600000023842,,,,"{""weight"":53,""beauty"":50,""harmony"":50,""attractiveness"":50}","[3,1,2,0]",50,50,50,53,T090
,,,,,multiple-slider,55,532158,0.0-4.0-51.0,14,1,2022-10-12 21:13:52,2047352bf9184260afd7af9ae9f812c9,107.142.215.204,"Mozilla/5.0 (Macintosh; Intel Mac OS X 10_15_7) AppleWebKit/537.36 (KHTML, like Gecko) Chrome/105.0.0.0 Safari/537.36",Macintosh,Chrome,105.0.0.0,OS X,10_15_7,4pcj128e,agree,6416.399999976158,,,,"{""beauty"":72,""weight"":7,""harmony"":72,""attractiveness"":71}","[1,3,2,0]",71,72,72,7,H230
,,,,,multiple-slider,56,537564,0.0-4.0-52.0,14,1,2022-10-12 21:13:52,2047352bf9184260afd7af9ae9f812c9,107.142.215.204,"Mozilla/5.0 (Macintosh; Intel Mac OS X 10_15_7) AppleWebKit/537.36 (KHTML, like Gecko) Chrome/105.0.0.0 Safari/537.36",Macintosh,Chrome,105.0.0.0,OS X,10_15_7,4pcj128e,agree,5397.299999952316,,,,"{""weight"":59,""harmony"":50,""attractiveness"":50,""beauty"":50}","[3,2,0,1]",50,50,50,59,T070
,,,,,multiple-slider,57,545456,0.0-4.0-53.0,14,1,2022-10-12 21:13:52,2047352bf9184260afd7af9ae9f812c9,107.142.215.204,"Mozilla/5.0 (Macintosh; Intel Mac OS X 10_15_7) AppleWebKit/537.36 (KHTML, like Gecko) Chrome/105.0.0.0 Safari/537.36",Macintosh,Chrome,105.0.0.0,OS X,10_15_7,4pcj128e,agree,7884.5,,,,"{""attractiveness"":73,""beauty"":73,""weight"":17,""harmony"":81}","[0,1,3,2]",73,73,81,17,H270
,,,,,multiple-slider,58,551743,0.0-4.0-54.0,14,1,2022-10-12 21:13:52,2047352bf9184260afd7af9ae9f812c9,107.142.215.204,"Mozilla/5.0 (Macintosh; Intel Mac OS X 10_15_7) AppleWebKit/537.36 (KHTML, like Gecko) Chrome/105.0.0.0 Safari/537.36",Macintosh,Chrome,105.0.0.0,OS X,10_15_7,4pcj128e,agree,6276.800000071526,,,,"{""beauty"":11,""attractiveness"":11,""weight"":91,""harmony"":21}","[1,0,3,2]",11,11,21,91,T150
,,,,,multiple-slider,59,557565,0.0-4.0-55.0,14,1,2022-10-12 21:13:52,2047352bf9184260afd7af9ae9f812c9,107.142.215.204,"Mozilla/5.0 (Macintosh; Intel Mac OS X 10_15_7) AppleWebKit/537.36 (KHTML, like Gecko) Chrome/105.0.0.0 Safari/537.36",Macintosh,Chrome,105.0.0.0,OS X,10_15_7,4pcj128e,agree,5815.600000023842,,,,"{""attractiveness"":0,""harmony"":0,""weight"":100,""beauty"":0}","[0,2,3,1]",0,0,0,100,T290
,,,,,multiple-slider,60,563509,0.0-4.0-56.0,14,1,2022-10-12 21:13:52,2047352bf9184260afd7af9ae9f812c9,107.142.215.204,"Mozilla/5.0 (Macintosh; Intel Mac OS X 10_15_7) AppleWebKit/537.36 (KHTML, like Gecko) Chrome/105.0.0.0 Safari/537.36",Macintosh,Chrome,105.0.0.0,OS X,10_15_7,4pcj128e,agree,5935.899999976158,,,,"{""harmony"":0,""weight"":100,""attractiveness"":0,""beauty"":0}","[2,3,0,1]",0,0,0,100,T270
,,,,,multiple-slider,61,570913,0.0-4.0-57.0,14,1,2022-10-12 21:13:52,2047352bf9184260afd7af9ae9f812c9,107.142.215.204,"Mozilla/5.0 (Macintosh; Intel Mac OS X 10_15_7) AppleWebKit/537.36 (KHTML, like Gecko) Chrome/105.0.0.0 Safari/537.36",Macintosh,Chrome,105.0.0.0,OS X,10_15_7,4pcj128e,agree,7395.100000023842,,,,"{""attractiveness"":35,""harmony"":27,""weight"":89,""beauty"":30}","[0,2,3,1]",35,30,27,89,T160
,,,,,multiple-slider,62,580648,0.0-4.0-58.0,14,1,2022-10-12 21:13:52,2047352bf9184260afd7af9ae9f812c9,107.142.215.204,"Mozilla/5.0 (Macintosh; Intel Mac OS X 10_15_7) AppleWebKit/537.36 (KHTML, like Gecko) Chrome/105.0.0.0 Safari/537.36",Macintosh,Chrome,105.0.0.0,OS X,10_15_7,4pcj128e,agree,9727.5,,,,"{""harmony"":90,""beauty"":86,""weight"":13,""attractiveness"":81}","[2,1,3,0]",81,86,90,13,H140
,,,,,multiple-slider,63,587799,0.0-4.0-59.0,14,1,2022-10-12 21:13:52,2047352bf9184260afd7af9ae9f812c9,107.142.215.204,"Mozilla/5.0 (Macintosh; Intel Mac OS X 10_15_7) AppleWebKit/537.36 (KHTML, like Gecko) Chrome/105.0.0.0 Safari/537.36",Macintosh,Chrome,105.0.0.0,OS X,10_15_7,4pcj128e,agree,7143,,,,"{""attractiveness"":66,""beauty"":71,""harmony"":76,""weight"":46}","[0,1,2,3]",66,71,76,46,N000
,,,,,multiple-slider,64,594958,0.0-4.0-60.0,14,1,2022-10-12 21:13:52,2047352bf9184260afd7af9ae9f812c9,107.142.215.204,"Mozilla/5.0 (Macintosh; Intel Mac OS X 10_15_7) AppleWebKit/537.36 (KHTML, like Gecko) Chrome/105.0.0.0 Safari/537.36",Macintosh,Chrome,105.0.0.0,OS X,10_15_7,4pcj128e,agree,7152.900000095367,,,,"{""attractiveness"":75,""weight"":27,""beauty"":72,""harmony"":67}","[0,3,1,2]",75,72,67,27,H160
,,,,,external-html,65,599280,0.0-5.0,14,1,2022-10-12 21:13:52,2047352bf9184260afd7af9ae9f812c9,107.142.215.204,"Mozilla/5.0 (Macintosh; Intel Mac OS X 10_15_7) AppleWebKit/537.36 (KHTML, like Gecko) Chrome/105.0.0.0 Safari/537.36",Macintosh,Chrome,105.0.0.0,OS X,10_15_7,4pcj128e,agree,3748.399999976158,debriefing.html,,,,,,,,,
true,false,[],[],[],preload,0,3144,0.0-0.0,13,1,2022-10-12 20:53:02,2047352bf9184260afd7af9ae9f812c9,74.15.221.11,Mozilla/5.0 (Windows NT 10.0; Win64; x64; rv:105.0) Gecko/20100101 Firefox/105.0,,Firefox,105.0,Windows,10.0,ulabsvaj,agree,,,,,,,,,,,
,,,,,external-html,1,20366,0.0-1.0,13,1,2022-10-12 20:53:02,2047352bf9184260afd7af9ae9f812c9,74.15.221.11,Mozilla/5.0 (Windows NT 10.0; Win64; x64; rv:105.0) Gecko/20100101 Firefox/105.0,,Firefox,105.0,Windows,10.0,ulabsvaj,agree,17017,consent.html,,,,,,,,,
,,,,,survey-text,2,75939,0.0-2.0,13,1,2022-10-12 20:53:02,2047352bf9184260afd7af9ae9f812c9,74.15.221.11,Mozilla/5.0 (Windows NT 10.0; Win64; x64; rv:105.0) Gecko/20100101 Firefox/105.0,,Firefox,105.0,Windows,10.0,ulabsvaj,agree,55547,,"{""prolID"":""5c8ee6c36ca70b0001fe979d"",""age"":""64"",""weight"":""182"",""height"":""6.0"",""mh"":""n/a""}",,,,,,,,
,,,,,instructions,3,104424,0.0-3.0,13,1,2022-10-12 20:53:02,2047352bf9184260afd7af9ae9f812c9,74.15.221.11,Mozilla/5.0 (Windows NT 10.0; Win64; x64; rv:105.0) Gecko/20100101 Firefox/105.0,,Firefox,105.0,Windows,10.0,ulabsvaj,agree,28474,,,"[{""page_index"":0,""viewing_time"":3425},{""page_index"":1,""viewing_time"":6669},{""page_index"":2,""viewing_time"":5307},{""page_index"":3,""viewing_time"":13073}]",,,,,,,
