run_id,condition,success,timeout,failed_images,failed_audio,failed_video,trial_type,trial_index,time_elapsed,internal_node_id,subject,debrief,rt,url,response,view_history,responses,question_order,attractiveness,beauty,harmony,weight,img,recorded_at
10,1,TRUE,FALSE,[],[],[],preload,0,2293,0.0-0.0,rndpec9t,agree,"""","""","""","""","""","""","""","""","""","""","""",2021-08-11 20:41
10,1,"""","""","""","""","""",external-html,1,10612,0.0-1.0,rndpec9t,agree,7258.7,consent.html,"""","""","""","""","""","""","""","""","""",2021-08-11 20:41
10,1,"""","""","""","""","""",survey-text,2,78104,0.0-2.0,rndpec9t,agree,67458.8,"""","{""prolID"":""6112fbdfb5f440ed459664e3"",""age"":""19"",""weight"":""147"",""height"":""5.9"",""mh"":""N/A""}","""","""","""","""","""","""","""","""",2021-08-11 20:41
10,1,"""","""","""","""","""",instructions,3,89899,0.0-3.0,rndpec9t,agree,11790.9,"""","""","[{""page_index"":0,""viewing_time"":3114.199999809265},{""page_index"":1,""viewing_time"":3717.2000002861023},{""page_index"":2,""viewing_time"":2117.199999809265},{""page_index"":3,""viewing_time"":2839.0999999046326}]","""","""","""","""","""","""","""",2021-08-11 20:41
10,1,"""","""","""","""","""",multiple-slider,4,102406,0.0-4.0-0.0,rndpec9t,agree,12495.8,"""","""","""","{""attractiveness"":51,""harmony"":39,""beauty"":74,""weight"":71}","[0,2,1,3]",51,74,39,71,H080,2021-08-11 20:41
10,1,"""","""","""","""","""",multiple-slider,5,111900,0.0-4.0-1.0,rndpec9t,agree,9482,"""","""","""","{""attractiveness"":59,""harmony"":63,""beauty"":58,""weight"":2}","[0,2,1,3]",59,58,63,2,T120,2021-08-11 20:41
10,1,"""","""","""","""","""",multiple-slider,6,134562,0.0-4.0-2.0,rndpec9t,agree,22652,"""","""","""","{""beauty"":10,""harmony"":9,""attractiveness"":19,""weight"":100}","[1,2,0,3]",19,10,9,100,T210,2021-08-11 20:41
10,1,"""","""","""","""","""",multiple-slider,7,144865,0.0-4.0-3.0,rndpec9t,agree,10291.8,"""","""","""","{""weight"":100,""attractiveness"":0,""beauty"":0,""harmony"":0}","[3,0,1,2]",0,0,0,100,T300,2021-08-11 20:41
10,1,"""","""","""","""","""",multiple-slider,8,155064,0.0-4.0-4.0,rndpec9t,agree,10191.2,"""","""","""","{""weight"":100,""beauty"":0,""attractiveness"":0,""harmony"":0}","[3,1,0,2]",0,0,0,100,T290,2021-08-11 20:41
10,1,"""","""","""","""","""",multiple-slider,9,164948,0.0-4.0-5.0,rndpec9t,agree,9874.5,"""","""","""","{""attractiveness"":0,""harmony"":41,""beauty"":0,""weight"":0}","[0,2,1,3]",0,0,41,0,H230,2021-08-11 20:41
10,1,"""","""","""","""","""",multiple-slider,10,175982,0.0-4.0-6.0,rndpec9t,agree,11026.7,"""","""","""","{""harmony"":68,""attractiveness"":71,""weight"":82,""beauty"":91}","[2,0,3,1]",71,91,68,82,H020,2021-08-11 20:41
10,1,"""","""","""","""","""",multiple-slider,11,182983,0.0-4.0-7.0,rndpec9t,agree,6990.8,"""","""","""","{""harmony"":0,""weight"":0,""attractiveness"":0,""beauty"":0}","[2,3,0,1]",0,0,0,0,H210,2021-08-11 20:41
10,1,"""","""","""","""","""",multiple-slider,12,191285,0.0-4.0-8.0,rndpec9t,agree,8294.4,"""","""","""","{""attractiveness"":0,""harmony"":0,""beauty"":0,""weight"":100}","[0,2,1,3]",0,0,0,100,T200,2021-08-11 20:41
10,1,"""","""","""","""","""",multiple-slider,13,201380,0.0-4.0-9.0,rndpec9t,agree,10084.1,"""","""","""","{""harmony"":38,""weight"":96,""beauty"":64,""attractiveness"":64}","[2,3,1,0]",64,64,38,96,T140,2021-08-11 20:41
10,1,"""","""","""","""","""",multiple-slider,14,208457,0.0-4.0-10.0,rndpec9t,agree,7069.3,"""","""","""","{""beauty"":0,""weight"":0,""attractiveness"":0,""harmony"":0}","[1,3,0,2]",0,0,0,0,H300,2021-08-11 20:41
10,1,"""","""","""","""","""",multiple-slider,15,218738,0.0-4.0-11.0,rndpec9t,agree,10271,"""","""","""","{""attractiveness"":0,""weight"":100,""harmony"":0,""beauty"":0}","[0,3,2,1]",0,0,0,100,T270,2021-08-11 20:41
10,1,"""","""","""","""","""",multiple-slider,16,236086,0.0-4.0-12.0,rndpec9t,agree,17339.8,"""","""","""","{""harmony"":68,""beauty"":31,""attractiveness"":9,""weight"":8}","[2,1,0,3]",9,31,68,8,H090,2021-08-11 20:41
10,1,"""","""","""","""","""",multiple-slider,17,246902,0.0-4.0-13.0,rndpec9t,agree,10805,"""","""","""","{""beauty"":28,""weight"":90,""attractiveness"":17,""harmony"":23}","[1,3,0,2]",17,28,23,90,T130,2021-08-11 20:41
10,1,"""","""","""","""","""",multiple-slider,18,270283,0.0-4.0-14.0,rndpec9t,agree,23373.2,"""","""","""","{""harmony"":5,""weight"":94,""beauty"":66,""attractiveness"":56}","[2,3,1,0]",56,66,5,94,T180,2021-08-11 20:41
10,1,"""","""","""","""","""",multiple-slider,19,279163,0.0-4.0-15.0,rndpec9t,agree,8866.6,"""","""","""","{""weight"":45,""attractiveness"":62,""beauty"":65,""harmony"":75}","[3,0,1,2]",62,65,75,45,H010,2021-08-11 20:41
10,1,"""","""","""","""","""",multiple-slider,20,288214,0.0-4.0-16.0,rndpec9t,agree,9039.8,"""","""","""","{""harmony"":82,""beauty"":79,""weight"":89,""attractiveness"":75}","[2,1,3,0]",75,79,82,89,T100,2021-08-11 20:41
10,1,"""","""","""","""","""",multiple-slider,21,297223,0.0-4.0-17.0,rndpec9t,agree,8998.2,"""","""","""","{""beauty"":91,""harmony"":90,""weight"":95,""attractiveness"":82}","[1,2,3,0]",82,91,90,95,T030,2021-08-11 20:41
10,1,"""","""","""","""","""",multiple-slider,22,305834,0.0-4.0-18.0,rndpec9t,agree,8603.9,"""","""","""","{""weight"":38,""beauty"":44,""attractiveness"":59,""harmony"":69}","[3,1,0,2]",59,44,69,38,H040,2021-08-11 20:41
10,1,"""","""","""","""","""",multiple-slider,23,314769,0.0-4.0-19.0,rndpec9t,agree,8923.1,"""","""","""","{""attractiveness"":0,""harmony"":0,""beauty"":0,""weight"":100}","[0,2,1,3]",0,0,0,100,T250,2021-08-11 20:41
10,1,"""","""","""","""","""",multiple-slider,24,322624,0.0-4.0-20.0,rndpec9t,agree,7846.8,"""","""","""","{""weight"":39,""beauty"":64,""attractiveness"":62,""harmony"":69}","[3,1,0,2]",62,64,69,39,H030,2021-08-11 20:41
10,1,"""","""","""","""","""",multiple-slider,25,334246,0.0-4.0-21.0,rndpec9t,agree,11608.9,"""","""","""","{""attractiveness"":0,""weight"":0,""beauty"":0,""harmony"":84}","[0,3,1,2]",0,0,84,0,H110,2021-08-11 20:41
10,1,"""","""","""","""","""",multiple-slider,26,341633,0.0-4.0-22.0,rndpec9t,agree,7377.5,"""","""","""","{""attractiveness"":0,""weight"":0,""beauty"":0,""harmony"":0}","[0,3,1,2]",0,0,0,0,H130,2021-08-11 20:41
10,1,"""","""","""","""","""",multiple-slider,27,351079,0.0-4.0-23.0,rndpec9t,agree,9436.2,"""","""","""","{""harmony"":73,""beauty"":77,""weight"":86,""attractiveness"":75}","[2,1,3,0]",75,77,73,86,T060,2021-08-11 20:41
10,1,"""","""","""","""","""",multiple-slider,28,365950,0.0-4.0-24.0,rndpec9t,agree,14864.6,"""","""","""","{""harmony"":0,""weight"":0,""attractiveness"":0,""beauty"":0}","[2,3,0,1]",0,0,0,0,H240,2021-08-11 20:41
10,1,"""","""","""","""","""",multiple-slider,29,373730,0.0-4.0-25.0,rndpec9t,agree,7768.9,"""","""","""","{""harmony"":0,""beauty"":0,""attractiveness"":0,""weight"":0}","[2,1,0,3]",0,0,0,0,H280,2021-08-11 20:41
10,1,"""","""","""","""","""",multiple-slider,30,397175,0.0-4.0-26.0,rndpec9t,agree,23437.7,"""","""","""","{""weight"":94,""harmony"":80,""attractiveness"":67,""beauty"":83}","[3,2,0,1]",67,83,80,94,T070,2021-08-11 20:41
10,1,"""","""","""","""","""",multiple-slider,31,404525,0.0-4.0-27.0,rndpec9t,agree,7340.3,"""","""","""","{""harmony"":0,""beauty"":0,""attractiveness"":0,""weight"":0}","[2,1,0,3]",0,0,0,0,H250,2021-08-11 20:41
10,1,"""","""","""","""","""",multiple-slider,32,413040,0.0-4.0-28.0,rndpec9t,agree,8504.1,"""","""","""","{""weight"":86,""harmony"":77,""attractiveness"":71,""beauty"":76}","[3,2,0,1]",71,76,77,86,N000,2021-08-11 20:41
10,1,"""","""","""","""","""",multiple-slider,33,420057,0.0-4.0-29.0,rndpec9t,agree,7008,"""","""","""","{""attractiveness"":0,""harmony"":0,""weight"":100,""beauty"":0}","[0,2,3,1]",0,0,0,100,T260,2021-08-11 20:41
10,1,"""","""","""","""","""",multiple-slider,34,440154,0.0-4.0-30.0,rndpec9t,agree,20089.6,"""","""","""","{""attractiveness"":76,""weight"":95,""harmony"":81,""beauty"":55}","[0,3,2,1]",76,55,81,95,T160,2021-08-11 20:41
10,1,"""","""","""","""","""",multiple-slider,35,525809,0.0-4.0-31.0,rndpec9t,agree,85641.6,"""","""","""","{""beauty"":1,""harmony"":8,""weight"":0,""attractiveness"":11}","[1,2,3,0]",11,1,8,0,H160,2021-08-11 20:41
10,1,"""","""","""","""","""",multiple-slider,36,535484,0.0-4.0-32.0,rndpec9t,agree,9667.3,"""","""","""","{""attractiveness"":72,""beauty"":85,""harmony"":73,""weight"":95}","[0,1,2,3]",72,85,73,95,T080,2021-08-11 20:41
10,1,"""","""","""","""","""",multiple-slider,37,545084,0.0-4.0-33.0,rndpec9t,agree,9589.5,"""","""","""","{""weight"":21,""beauty"":0,""attractiveness"":4,""harmony"":48}","[3,1,0,2]",4,0,48,21,H140,2021-08-11 20:41
10,1,"""","""","""","""","""",multiple-slider,38,560379,0.0-4.0-34.0,rndpec9t,agree,15288.1,"""","""","""","{""harmony"":0,""attractiveness"":0,""beauty"":0,""weight"":100}","[2,0,1,3]",0,0,0,100,T240,2021-08-11 20:41
10,1,"""","""","""","""","""",multiple-slider,39,570977,0.0-4.0-35.0,rndpec9t,agree,10586.6,"""","""","""","{""beauty"":73,""harmony"":79,""weight"":69,""attractiveness"":65}","[1,2,3,0]",65,73,79,69,T110,2021-08-11 20:41
10,1,"""","""","""","""","""",multiple-slider,40,579499,0.0-4.0-36.0,rndpec9t,agree,8514,"""","""","""","{""beauty"":82,""attractiveness"":100,""weight"":87,""harmony"":85}","[1,0,3,2]",100,82,85,87,T150,2021-08-11 20:41
10,1,"""","""","""","""","""",multiple-slider,41,592917,0.0-4.0-37.0,rndpec9t,agree,13407.4,"""","""","""","{""weight"":100,""harmony"":0,""beauty"":0,""attractiveness"":5}","[3,2,1,0]",5,0,0,100,T280,2021-08-11 20:41
10,1,"""","""","""","""","""",multiple-slider,42,608813,0.0-4.0-38.0,rndpec9t,agree,15887.1,"""","""","""","{""attractiveness"":53,""harmony"":59,""beauty"":57,""weight"":0}","[0,2,1,3]",53,57,59,0,H050,2021-08-11 20:41
10,1,"""","""","""","""","""",multiple-slider,43,621753,0.0-4.0-39.0,rndpec9t,agree,12928,"""","""","""","{""weight"":92,""harmony"":64,""attractiveness"":60,""beauty"":46}","[3,2,0,1]",60,46,64,92,T190,2021-08-11 20:41
10,1,"""","""","""","""","""",multiple-slider,44,629028,0.0-4.0-40.0,rndpec9t,agree,7267.4,"""","""","""","{""harmony"":0,""weight"":0,""beauty"":0,""attractiveness"":0}","[2,3,1,0]",0,0,0,0,H220,2021-08-11 20:41
10,1,"""","""","""","""","""",multiple-slider,45,646515,0.0-4.0-41.0,rndpec9t,agree,17476.2,"""","""","""","{""weight"":30,""attractiveness"":72,""beauty"":66,""harmony"":56}","[3,0,1,2]",72,66,56,30,H070,2021-08-11 20:41
10,1,"""","""","""","""","""",multiple-slider,46,656134,0.0-4.0-42.0,rndpec9t,agree,9611.7,"""","""","""","{""weight"":94,""beauty"":69,""harmony"":62,""attractiveness"":62}","[3,1,2,0]",62,69,62,94,T170,2021-08-11 20:41
10,1,"""","""","""","""","""",multiple-slider,47,666434,0.0-4.0-43.0,rndpec9t,agree,10289.5,"""","""","""","{""harmony"":4,""attractiveness"":0,""weight"":0,""beauty"":10}","[2,0,3,1]",0,10,4,0,H270,2021-08-11 20:41
10,1,"""","""","""","""","""",multiple-slider,48,673889,0.0-4.0-44.0,rndpec9t,agree,7448,"""","""","""","{""beauty"":0,""harmony"":0,""weight"":0,""attractiveness"":0}","[1,2,3,0]",0,0,0,0,H190,2021-08-11 20:41
10,1,"""","""","""","""","""",multiple-slider,49,682362,0.0-4.0-45.0,rndpec9t,agree,8460.8,"""","""","""","{""attractiveness"":0,""weight"":0,""beauty"":0,""harmony"":3}","[0,3,1,2]",0,0,3,0,H180,2021-08-11 20:41
10,1,"""","""","""","""","""",multiple-slider,50,688220,0.0-4.0-46.0,rndpec9t,agree,5851,"""","""","""","{""harmony"":5,""beauty"":0,""attractiveness"":11,""weight"":0}","[2,1,0,3]",11,0,5,0,H170,2021-08-11 20:41
10,1,"""","""","""","""","""",multiple-slider,51,697661,0.0-4.0-47.0,rndpec9t,agree,9428.4,"""","""","""","{""beauty"":81,""weight"":84,""harmony"":72,""attractiveness"":93}","[1,3,2,0]",93,81,72,84,T050,2021-08-11 20:41
10,1,"""","""","""","""","""",multiple-slider,52,705277,0.0-4.0-48.0,rndpec9t,agree,7608.6,"""","""","""","{""harmony"":100,""attractiveness"":91,""weight"":91,""beauty"":89}","[2,0,3,1]",91,89,100,91,T090,2021-08-11 20:41
10,1,"""","""","""","""","""",multiple-slider,53,713475,0.0-4.0-49.0,rndpec9t,agree,8187,"""","""","""","{""weight"":47,""harmony"":80,""attractiveness"":69,""beauty"":59}","[3,2,0,1]",69,59,80,47,H060,2021-08-11 20:41
10,1,"""","""","""","""","""",multiple-slider,54,766647,0.0-4.0-50.0,rndpec9t,agree,53165.7,"""","""","""","{""harmony"":87,""beauty"":90,""attractiveness"":78,""weight"":66}","[2,1,0,3]",78,90,87,66,T020,2021-08-11 20:41
10,1,"""","""","""","""","""",multiple-slider,55,777443,0.0-4.0-51.0,rndpec9t,agree,10784.5,"""","""","""","{""weight"":36,""harmony"":23,""attractiveness"":24,""beauty"":25}","[3,2,0,1]",24,25,23,36,H100,2021-08-11 20:41
10,1,"""","""","""","""","""",multiple-slider,56,783971,0.0-4.0-52.0,rndpec9t,agree,6519.9,"""","""","""","{""weight"":100,""beauty"":0,""harmony"":0,""attractiveness"":0}","[3,1,2,0]",0,0,0,100,T220,2021-08-11 20:41
10,1,"""","""","""","""","""",multiple-slider,57,790759,0.0-4.0-53.0,rndpec9t,agree,6778.2,"""","""","""","{""harmony"":0,""attractiveness"":32,""weight"":0,""beauty"":21}","[2,0,3,1]",32,21,0,0,H150,2021-08-11 20:41
10,1,"""","""","""","""","""",multiple-slider,58,798474,0.0-4.0-54.0,rndpec9t,agree,7707.5,"""","""","""","{""weight"":0,""attractiveness"":0,""beauty"":0,""harmony"":0}","[3,0,1,2]",0,0,0,0,H260,2021-08-11 20:41
10,1,"""","""","""","""","""",multiple-slider,59,806807,0.0-4.0-55.0,rndpec9t,agree,8321.7,"""","""","""","{""attractiveness"":90,""weight"":90,""beauty"":88,""harmony"":78}","[0,3,1,2]",90,88,78,90,T010,2021-08-11 20:41
10,1,"""","""","""","""","""",multiple-slider,60,813576,0.0-4.0-56.0,rndpec9t,agree,6760.6,"""","""","""","{""harmony"":100,""weight"":90,""beauty"":100,""attractiveness"":100}","[2,3,1,0]",100,100,100,90,T040,2021-08-11 20:41
10,1,"""","""","""","""","""",multiple-slider,61,821514,0.0-4.0-57.0,rndpec9t,agree,7926.4,"""","""","""","{""harmony"":0,""attractiveness"":2,""weight"":0,""beauty"":0}","[2,0,3,1]",2,0,0,0,H290,2021-08-11 20:41
10,1,"""","""","""","""","""",multiple-slider,62,832504,0.0-4.0-58.0,rndpec9t,agree,10982.6,"""","""","""","{""attractiveness"":0,""weight"":1,""harmony"":19,""beauty"":14}","[0,3,2,1]",0,14,19,1,H120,2021-08-11 20:41
10,1,"""","""","""","""","""",multiple-slider,63,848034,0.0-4.0-59.0,rndpec9t,agree,15516.6,"""","""","""","{""weight"":100,""harmony"":42,""beauty"":0,""attractiveness"":0}","[3,2,1,0]",0,0,42,100,T230,2021-08-11 20:41
10,1,"""","""","""","""","""",multiple-slider,64,855913,0.0-4.0-60.0,rndpec9t,agree,7872.4,"""","""","""","{""attractiveness"":0,""beauty"":0,""weight"":1,""harmony"":0}","[0,1,3,2]",0,0,0,1,H200,2021-08-11 20:41
10,1,"""","""","""","""","""",external-html,65,885336,0.0-5.0,rndpec9t,agree,28269.4,debriefing.html,"""","""","""","""","""","""","""","""","""",2021-08-11 20:41
100,1,TRUE,FALSE,[],[],[],preload,0,5119,0.0-0.0,yju50z2o,agree,"""","""","""","""","""","""","""","""","""","""","""",2021-08-12 18:06
100,1,"""","""","""","""","""",external-html,1,13751,0.0-1.0,yju50z2o,agree,8240.7,consent.html,"""","""","""","""","""","""","""","""","""",2021-08-12 18:06
100,1,"""","""","""","""","""",survey-text,2,41992,0.0-2.0,yju50z2o,agree,28229,"""","{""prolID"":""61086f026cfb5add2fe5dbca"",""age"":""19"",""weight"":""140"",""height"":""5.2"",""mh"":""N/A""}","""","""","""","""","""","""","""","""",2021-08-12 18:06
100,1,"""","""","""","""","""",instructions,3,54494,0.0-3.0,yju50z2o,agree,12500.1,"""","""","[{""page_index"":0,""viewing_time"":1331.800000011921},{""page_index"":1,""viewing_time"":4359.800000011921},{""page_index"":2,""viewing_time"":3399.599999964237},{""page_index"":3,""viewing_time"":3408.199999988079}]","""","""","""","""","""","""","""",2021-08-12 18:06
100,1,"""","""","""","""","""",multiple-slider,4,68975,0.0-4.0-0.0,yju50z2o,agree,14478.1,"""","""","""","{""harmony"":36,""beauty"":31,""weight"":18,""attractiveness"":47}","[2,1,3,0]",47,31,36,18,H180,2021-08-12 18:06
100,1,"""","""","""","""","""",multiple-slider,5,91391,0.0-4.0-1.0,yju50z2o,agree,22406.5,"""","""","""","{""attractiveness"":29,""weight"":98,""harmony"":30,""beauty"":26}","[0,3,2,1]",29,26,30,98,T280,2021-08-12 18:06
100,1,"""","""","""","""","""",multiple-slider,6,115952,0.0-4.0-2.0,yju50z2o,agree,24553.4,"""","""","""","{""weight"":43,""harmony"":59,""beauty"":44,""attractiveness"":50}","[3,2,1,0]",50,44,59,43,H110,2021-08-12 18:06
100,1,"""","""","""","""","""",multiple-slider,7,148745,0.0-4.0-3.0,yju50z2o,agree,32783.1,"""","""","""","{""beauty"":42,""harmony"":44,""weight"":40,""attractiveness"":48}","[1,2,3,0]",48,42,44,40,H130,2021-08-12 18:06
100,1,"""","""","""","""","""",multiple-slider,8,170026,0.0-4.0-4.0,yju50z2o,agree,21273.8,"""","""","""","{""attractiveness"":35,""harmony"":31,""weight"":94,""beauty"":32}","[0,2,3,1]",35,32,31,94,T230,2021-08-12 18:06
100,1,"""","""","""","""","""",multiple-slider,9,180978,0.0-4.0-5.0,yju50z2o,agree,10942.6,"""","""","""","{""beauty"":35,""harmony"":33,""weight"":94,""attractiveness"":37}","[1,2,3,0]",37,35,33,94,T270,2021-08-12 18:06
100,1,"""","""","""","""","""",multiple-slider,10,215626,0.0-4.0-6.0,yju50z2o,agree,34640.5,"""","""","""","{""harmony"":43,""attractiveness"":45,""beauty"":40,""weight"":10}","[2,0,1,3]",45,40,43,10,H190,2021-08-12 18:06
100,1,"""","""","""","""","""",multiple-slider,11,228699,0.0-4.0-7.0,yju50z2o,agree,13057.3,"""","""","""","{""attractiveness"":44,""beauty"":38,""harmony"":48,""weight"":11}","[0,1,2,3]",44,38,48,11,H210,2021-08-12 18:06
100,1,"""","""","""","""","""",multiple-slider,12,241099,0.0-4.0-8.0,yju50z2o,agree,12392.7,"""","""","""","{""beauty"":45,""weight"":95,""harmony"":43,""attractiveness"":35}","[1,3,2,0]",35,45,43,95,T300,2021-08-12 18:06
100,1,"""","""","""","""","""",multiple-slider,13,264620,0.0-4.0-9.0,yju50z2o,agree,23512.5,"""","""","""","{""weight"":11,""beauty"":39,""harmony"":46,""attractiveness"":42}","[3,1,2,0]",42,39,46,11,H250,2021-08-12 18:06
100,1,"""","""","""","""","""",multiple-slider,14,275997,0.0-4.0-10.0,yju50z2o,agree,11368.7,"""","""","""","{""harmony"":62,""weight"":66,""beauty"":57,""attractiveness"":61}","[2,3,1,0]",61,57,62,66,T130,2021-08-12 18:06
100,1,"""","""","""","""","""",multiple-slider,15,288869,0.0-4.0-11.0,yju50z2o,agree,12863,"""","""","""","{""weight"":57,""harmony"":57,""beauty"":55,""attractiveness"":57}","[3,2,1,0]",57,55,57,57,T160,2021-08-12 18:06
100,1,"""","""","""","""","""",multiple-slider,16,299613,0.0-4.0-12.0,yju50z2o,agree,10736.7,"""","""","""","{""harmony"":39,""attractiveness"":26,""beauty"":32,""weight"":3}","[2,0,1,3]",26,32,39,3,H300,2021-08-12 18:06
100,1,"""","""","""","""","""",multiple-slider,17,321814,0.0-4.0-13.0,yju50z2o,agree,22190.8,"""","""","""","{""harmony"":88,""beauty"":86,""attractiveness"":87,""weight"":47}","[2,1,0,3]",87,86,88,47,T010,2021-08-12 18:06
100,1,"""","""","""","""","""",multiple-slider,18,336390,0.0-4.0-14.0,yju50z2o,agree,14568.1,"""","""","""","{""attractiveness"":55,""weight"":67,""beauty"":62,""harmony"":52}","[0,3,1,2]",55,62,52,67,T210,2021-08-12 18:06
100,1,"""","""","""","""","""",multiple-slider,19,347287,0.0-4.0-15.0,yju50z2o,agree,10887.2,"""","""","""","{""weight"":9,""harmony"":41,""beauty"":36,""attractiveness"":38}","[3,2,1,0]",38,36,41,9,H260,2021-08-12 18:06
100,1,"""","""","""","""","""",multiple-slider,20,359351,0.0-4.0-16.0,yju50z2o,agree,12057.5,"""","""","""","{""attractiveness"":88,""harmony"":90,""beauty"":92,""weight"":52}","[0,2,1,3]",88,92,90,52,H020,2021-08-12 18:06
100,1,"""","""","""","""","""",multiple-slider,21,379511,0.0-4.0-17.0,yju50z2o,agree,20151.7,"""","""","""","{""beauty"":47,""attractiveness"":54,""harmony"":50,""weight"":68}","[1,0,2,3]",54,47,50,68,T200,2021-08-12 18:06
100,1,"""","""","""","""","""",multiple-slider,22,389080,0.0-4.0-18.0,yju50z2o,agree,9561.7,"""","""","""","{""beauty"":69,""attractiveness"":59,""weight"":61,""harmony"":69}","[1,0,3,2]",59,69,69,61,T110,2021-08-12 18:06
100,1,"""","""","""","""","""",multiple-slider,23,408497,0.0-4.0-19.0,yju50z2o,agree,19407.1,"""","""","""","{""beauty"":44,""harmony"":57,""weight"":40,""attractiveness"":56}","[1,2,3,0]",56,44,57,40,H090,2021-08-12 18:06
100,1,"""","""","""","""","""",multiple-slider,24,423705,0.0-4.0-20.0,yju50z2o,agree,15200.7,"""","""","""","{""beauty"":35,""harmony"":39,""attractiveness"":32,""weight"":84}","[1,2,0,3]",32,35,39,84,T250,2021-08-12 18:06
100,1,"""","""","""","""","""",multiple-slider,25,437337,0.0-4.0-21.0,yju50z2o,agree,13621.6,"""","""","""","{""harmony"":24,""attractiveness"":23,""weight"":3,""beauty"":12}","[2,0,3,1]",23,12,24,3,H280,2021-08-12 18:06
100,1,"""","""","""","""","""",multiple-slider,26,452033,0.0-4.0-22.0,yju50z2o,agree,14688.8,"""","""","""","{""weight"":52,""beauty"":82,""harmony"":99,""attractiveness"":75}","[3,1,2,0]",75,82,99,52,T020,2021-08-12 18:06
100,1,"""","""","""","""","""",multiple-slider,27,462955,0.0-4.0-23.0,yju50z2o,agree,10911.3,"""","""","""","{""beauty"":90,""harmony"":91,""weight"":48,""attractiveness"":90}","[1,2,3,0]",90,90,91,48,H010,2021-08-12 18:06
100,1,"""","""","""","""","""",multiple-slider,28,480891,0.0-4.0-24.0,yju50z2o,agree,17929,"""","""","""","{""weight"":24,""harmony"":40,""attractiveness"":32,""beauty"":37}","[3,2,0,1]",32,37,40,24,H200,2021-08-12 18:06
100,1,"""","""","""","""","""",multiple-slider,29,495499,0.0-4.0-25.0,yju50z2o,agree,14597.7,"""","""","""","{""harmony"":73,""attractiveness"":71,""weight"":60,""beauty"":83}","[2,0,3,1]",71,83,73,60,T090,2021-08-12 18:06
100,1,"""","""","""","""","""",multiple-slider,30,507331,0.0-4.0-26.0,yju50z2o,agree,11824.7,"""","""","""","{""beauty"":91,""weight"":52,""harmony"":93,""attractiveness"":91}","[1,3,2,0]",91,91,93,52,T030,2021-08-12 18:06
100,1,"""","""","""","""","""",multiple-slider,31,517796,0.0-4.0-27.0,yju50z2o,agree,10454.4,"""","""","""","{""weight"":62,""beauty"":84,""attractiveness"":86,""harmony"":80}","[3,1,0,2]",86,84,80,62,T100,2021-08-12 18:06
100,1,"""","""","""","""","""",multiple-slider,32,530316,0.0-4.0-28.0,yju50z2o,agree,12512.8,"""","""","""","{""harmony"":67,""weight"":43,""beauty"":82,""attractiveness"":70}","[2,3,1,0]",70,82,67,43,H070,2021-08-12 18:06
100,1,"""","""","""","""","""",multiple-slider,33,540740,0.0-4.0-29.0,yju50z2o,agree,10414.1,"""","""","""","{""weight"":92,""attractiveness"":31,""beauty"":32,""harmony"":26}","[3,0,1,2]",31,32,26,92,T260,2021-08-12 18:06
100,1,"""","""","""","""","""",multiple-slider,34,551637,0.0-4.0-30.0,yju50z2o,agree,10890.3,"""","""","""","{""beauty"":47,""harmony"":41,""weight"":69,""attractiveness"":43}","[1,2,3,0]",43,47,41,69,T170,2021-08-12 18:06
100,1,"""","""","""","""","""",multiple-slider,35,602343,0.0-4.0-31.0,yju50z2o,agree,50694.5,"""","""","""","{""harmony"":31,""attractiveness"":33,""beauty"":28,""weight"":14}","[2,0,1,3]",33,28,31,14,H270,2021-08-12 18:06
100,1,"""","""","""","""","""",multiple-slider,36,613886,0.0-4.0-32.0,yju50z2o,agree,11537.4,"""","""","""","{""weight"":59,""harmony"":43,""beauty"":41,""attractiveness"":36}","[3,2,1,0]",36,41,43,59,T190,2021-08-12 18:06
100,1,"""","""","""","""","""",multiple-slider,37,623727,0.0-4.0-33.0,yju50z2o,agree,9831,"""","""","""","{""weight"":40,""attractiveness"":56,""harmony"":62,""beauty"":62}","[3,0,2,1]",56,62,62,40,H100,2021-08-12 18:06
100,1,"""","""","""","""","""",multiple-slider,38,634375,0.0-4.0-34.0,yju50z2o,agree,10641.8,"""","""","""","{""attractiveness"":83,""weight"":55,""beauty"":78,""harmony"":88}","[0,3,1,2]",83,78,88,55,T040,2021-08-12 18:06
100,1,"""","""","""","""","""",multiple-slider,39,643880,0.0-4.0-35.0,yju50z2o,agree,9494.9,"""","""","""","{""harmony"":55,""attractiveness"":55,""weight"":67,""beauty"":55}","[2,0,3,1]",55,55,55,67,T180,2021-08-12 18:06
100,1,"""","""","""","""","""",multiple-slider,40,662808,0.0-4.0-36.0,yju50z2o,agree,18921.1,"""","""","""","{""beauty"":41,""harmony"":43,""attractiveness"":38,""weight"":34}","[1,2,0,3]",38,41,43,34,H170,2021-08-12 18:06
100,1,"""","""","""","""","""",multiple-slider,41,681089,0.0-4.0-37.0,yju50z2o,agree,18270.6,"""","""","""","{""weight"":29,""harmony"":37,""beauty"":32,""attractiveness"":36}","[3,2,1,0]",36,32,37,29,H240,2021-08-12 18:06
100,1,"""","""","""","""","""",multiple-slider,42,700249,0.0-4.0-38.0,yju50z2o,agree,19153.6,"""","""","""","{""beauty"":37,""weight"":24,""harmony"":37,""attractiveness"":34}","[1,3,2,0]",34,37,37,24,H220,2021-08-12 18:06
100,1,"""","""","""","""","""",multiple-slider,43,710457,0.0-4.0-39.0,yju50z2o,agree,10198.5,"""","""","""","{""attractiveness"":55,""weight"":64,""harmony"":48,""beauty"":63}","[0,3,2,1]",55,63,48,64,T140,2021-08-12 18:06
100,1,"""","""","""","""","""",multiple-slider,44,719433,0.0-4.0-40.0,yju50z2o,agree,8969,"""","""","""","{""beauty"":91,""harmony"":87,""weight"":51,""attractiveness"":85}","[1,2,3,0]",85,91,87,51,T070,2021-08-12 18:06
100,1,"""","""","""","""","""",multiple-slider,45,730345,0.0-4.0-41.0,yju50z2o,agree,10902,"""","""","""","{""harmony"":95,""beauty"":90,""attractiveness"":91,""weight"":46}","[2,1,0,3]",91,90,95,46,N000,2021-08-12 18:06
100,1,"""","""","""","""","""",multiple-slider,46,748819,0.0-4.0-42.0,yju50z2o,agree,18466,"""","""","""","{""beauty"":64,""weight"":56,""harmony"":77,""attractiveness"":64}","[1,3,2,0]",64,64,77,56,T080,2021-08-12 18:06
100,1,"""","""","""","""","""",multiple-slider,47,757035,0.0-4.0-43.0,yju50z2o,agree,8206.8,"""","""","""","{""beauty"":87,""harmony"":92,""weight"":53,""attractiveness"":75}","[1,2,3,0]",75,87,92,53,T050,2021-08-12 18:06
100,1,"""","""","""","""","""",multiple-slider,48,765411,0.0-4.0-44.0,yju50z2o,agree,8369.7,"""","""","""","{""beauty"":56,""weight"":42,""attractiveness"":58,""harmony"":66}","[1,3,0,2]",58,56,66,42,H050,2021-08-12 18:06
100,1,"""","""","""","""","""",multiple-slider,49,774579,0.0-4.0-45.0,yju50z2o,agree,9157.8,"""","""","""","{""harmony"":40,""beauty"":34,""weight"":32,""attractiveness"":38}","[2,1,3,0]",38,34,40,32,H150,2021-08-12 18:06
100,1,"""","""","""","""","""",multiple-slider,50,799684,0.0-4.0-46.0,yju50z2o,agree,25097.4,"""","""","""","{""harmony"":56,""attractiveness"":60,""weight"":42,""beauty"":59}","[2,0,3,1]",60,59,56,42,H080,2021-08-12 18:06
100,1,"""","""","""","""","""",multiple-slider,51,819269,0.0-4.0-47.0,yju50z2o,agree,19574.6,"""","""","""","{""weight"":45,""beauty"":61,""attractiveness"":60,""harmony"":64}","[3,1,0,2]",60,61,64,45,H060,2021-08-12 18:06
100,1,"""","""","""","""","""",multiple-slider,52,824813,0.0-4.0-48.0,yju50z2o,agree,5537.5,"""","""","""","{""weight"":35,""attractiveness"":36,""beauty"":30,""harmony"":23}","[3,0,1,2]",36,30,23,35,H160,2021-08-12 18:06
100,1,"""","""","""","""","""",multiple-slider,53,836374,0.0-4.0-49.0,yju50z2o,agree,11549.5,"""","""","""","{""beauty"":14,""attractiveness"":5,""weight"":98,""harmony"":4}","[1,0,3,2]",5,14,4,98,T290,2021-08-12 18:06
100,1,"""","""","""","""","""",multiple-slider,54,855774,0.0-4.0-50.0,yju50z2o,agree,19393.5,"""","""","""","{""beauty"":17,""weight"":11,""harmony"":18,""attractiveness"":9}","[1,3,2,0]",9,17,18,11,H230,2021-08-12 18:06
100,1,"""","""","""","""","""",multiple-slider,55,867702,0.0-4.0-51.0,yju50z2o,agree,11917.1,"""","""","""","{""harmony"":44,""attractiveness"":47,""beauty"":53,""weight"":74}","[2,0,1,3]",47,53,44,74,T150,2021-08-12 18:06
100,1,"""","""","""","""","""",multiple-slider,56,991194,0.0-4.0-52.0,yju50z2o,agree,123481.4,"""","""","""","{""harmony"":56,""attractiveness"":62,""weight"":65,""beauty"":67}","[2,0,3,1]",62,67,56,65,T120,2021-08-12 18:06
100,1,"""","""","""","""","""",multiple-slider,57,998058,0.0-4.0-53.0,yju50z2o,agree,6853.1,"""","""","""","{""harmony"":45,""weight"":68,""attractiveness"":42,""beauty"":37}","[2,3,0,1]",42,37,45,68,T240,2021-08-12 18:06
100,1,"""","""","""","""","""",multiple-slider,58,1018210,0.0-4.0-54.0,yju50z2o,agree,20144,"""","""","""","{""weight"":33,""harmony"":42,""beauty"":28,""attractiveness"":33}","[3,2,1,0]",33,28,42,33,H120,2021-08-12 18:06
100,1,"""","""","""","""","""",multiple-slider,59,1025331,0.0-4.0-55.0,yju50z2o,agree,7111,"""","""","""","{""harmony"":62,""beauty"":60,""weight"":44,""attractiveness"":58}","[2,1,3,0]",58,60,62,44,H040,2021-08-12 18:06
100,1,"""","""","""","""","""",multiple-slider,60,1031995,0.0-4.0-56.0,yju50z2o,agree,6657.2,"""","""","""","{""harmony"":64,""attractiveness"":70,""weight"":55,""beauty"":66}","[2,0,3,1]",70,66,64,55,T060,2021-08-12 18:06
100,1,"""","""","""","""","""",multiple-slider,61,1040235,0.0-4.0-57.0,yju50z2o,agree,8228.9,"""","""","""","{""attractiveness"":35,""beauty"":29,""weight"":21,""harmony"":41}","[0,1,3,2]",35,29,41,21,H290,2021-08-12 18:06
100,1,"""","""","""","""","""",multiple-slider,62,1046700,0.0-4.0-58.0,yju50z2o,agree,6456.4,"""","""","""","{""attractiveness"":68,""beauty"":76,""weight"":51,""harmony"":77}","[0,1,3,2]",68,76,77,51,H030,2021-08-12 18:06
100,1,"""","""","""","""","""",multiple-slider,63,1055908,0.0-4.0-59.0,yju50z2o,agree,9196.4,"""","""","""","{""harmony"":41,""weight"":29,""attractiveness"":35,""beauty"":32}","[2,3,0,1]",35,32,41,29,H140,2021-08-12 18:06
100,1,"""","""","""","""","""",multiple-slider,64,1066164,0.0-4.0-60.0,yju50z2o,agree,10248.9,"""","""","""","{""beauty"":31,""attractiveness"":25,""harmony"":28,""weight"":76}","[1,0,2,3]",25,31,28,76,T220,2021-08-12 18:06
100,1,"""","""","""","""","""",external-html,65,1070773,0.0-5.0,yju50z2o,agree,3807.1,debriefing.html,"""","""","""","""","""","""","""","""","""",2021-08-12 18:06
101,1,TRUE,FALSE,[],[],[],preload,0,71581,0.0-0.0,guen5b2t,agree,"""","""","""","""","""","""","""","""","""","""","""",2021-08-12 18:06
101,1,"""","""","""","""","""",external-html,1,101427,0.0-1.0,guen5b2t,agree,27021.3,consent.html,"""","""","""","""","""","""","""","""","""",2021-08-12 18:06
101,1,"""","""","""","""","""",survey-text,2,171051,0.0-2.0,guen5b2t,agree,69596.6,"""","{""prolID"":""610806c3ce368b533ee96ce3"",""age"":""20"",""weight"":""100"",""height"":""6.1"",""mh"":""N/A""}","""","""","""","""","""","""","""","""",2021-08-12 18:06
101,1,"""","""","""","""","""",instructions,3,195955,0.0-3.0,guen5b2t,agree,24896.7,"""","""","[{""page_index"":0,""viewing_time"":2285.7999999970198},{""page_index"":1,""viewing_time"":10290.20000000298},{""page_index"":2,""viewing_time"":3714.2999999970198},{""page_index"":3,""viewing_time"":8604.40000000596}]","""","""","""","""","""","""","""",2021-08-12 18:06
101,1,"""","""","""","""","""",multiple-slider,4,229054,0.0-4.0-0.0,guen5b2t,agree,33088.9,"""","""","""","{""attractiveness"":60,""beauty"":53,""harmony"":53,""weight"":34}","[0,1,2,3]",60,53,53,34,H040,2021-08-12 18:06
101,1,"""","""","""","""","""",multiple-slider,5,243567,0.0-4.0-1.0,guen5b2t,agree,14495.9,"""","""","""","{""harmony"":36,""attractiveness"":43,""weight"":19,""beauty"":25}","[2,0,3,1]",43,25,36,19,H170,2021-08-12 18:06
101,1,"""","""","""","""","""",multiple-slider,6,272939,0.0-4.0-2.0,guen5b2t,agree,29360.8,"""","""","""","{""harmony"":60,""weight"":100,""attractiveness"":66,""beauty"":23}","[2,3,0,1]",66,23,60,100,T100,2021-08-12 18:06
101,1,"""","""","""","""","""",multiple-slider,7,287934,0.0-4.0-3.0,guen5b2t,agree,14982.2,"""","""","""","{""attractiveness"":0,""beauty"":8,""weight"":100,""harmony"":1}","[0,1,3,2]",0,8,1,100,T230,2021-08-12 18:06
101,1,"""","""","""","""","""",multiple-slider,8,329078,0.0-4.0-4.0,guen5b2t,agree,41136.2,"""","""","""","{""harmony"":0,""weight"":0,""attractiveness"":0,""beauty"":4}","[2,3,0,1]",0,4,0,0,H250,2021-08-12 18:06
101,1,"""","""","""","""","""",multiple-slider,9,347336,0.0-4.0-5.0,guen5b2t,agree,18244.2,"""","""","""","{""attractiveness"":37,""harmony"":20,""weight"":100,""beauty"":20}","[0,2,3,1]",37,20,20,100,T120,2021-08-12 18:06
101,1,"""","""","""","""","""",multiple-slider,10,363880,0.0-4.0-6.0,guen5b2t,agree,16540.3,"""","""","""","{""harmony"":61,""weight"":35,""attractiveness"":53,""beauty"":53}","[2,3,0,1]",53,53,61,35,H110,2021-08-12 18:06
101,1,"""","""","""","""","""",multiple-slider,11,377126,0.0-4.0-7.0,guen5b2t,agree,13233.5,"""","""","""","{""harmony"":0,""beauty"":1,""attractiveness"":9,""weight"":0}","[2,1,0,3]",9,1,0,0,H230,2021-08-12 18:06
101,1,"""","""","""","""","""",multiple-slider,12,397346,0.0-4.0-8.0,guen5b2t,agree,20209.5,"""","""","""","{""harmony"":0,""beauty"":2,""attractiveness"":11,""weight"":100}","[2,1,0,3]",11,2,0,100,T210,2021-08-12 18:06
101,1,"""","""","""","""","""",multiple-slider,13,415982,0.0-4.0-9.0,guen5b2t,agree,18622.7,"""","""","""","{""weight"":58,""attractiveness"":72,""harmony"":62,""beauty"":68}","[3,0,2,1]",72,68,62,58,H050,2021-08-12 18:06
101,1,"""","""","""","""","""",multiple-slider,14,431311,0.0-4.0-10.0,guen5b2t,agree,15319.9,"""","""","""","{""weight"":51,""harmony"":100,""beauty"":100,""attractiveness"":100}","[3,2,1,0]",100,100,100,51,H020,2021-08-12 18:06
101,1,"""","""","""","""","""",multiple-slider,15,450944,0.0-4.0-11.0,guen5b2t,agree,19621.1,"""","""","""","{""attractiveness"":60,""harmony"":72,""beauty"":64,""weight"":44}","[0,2,1,3]",60,64,72,44,H070,2021-08-12 18:06
101,1,"""","""","""","""","""",multiple-slider,16,465594,0.0-4.0-12.0,guen5b2t,agree,14641.7,"""","""","""","{""beauty"":0,""attractiveness"":0,""weight"":100,""harmony"":0}","[1,0,3,2]",0,0,0,100,T240,2021-08-12 18:06
101,1,"""","""","""","""","""",multiple-slider,17,476575,0.0-4.0-13.0,guen5b2t,agree,10965.9,"""","""","""","{""weight"":100,""attractiveness"":0,""beauty"":0,""harmony"":0}","[3,0,1,2]",0,0,0,100,T190,2021-08-12 18:06
101,1,"""","""","""","""","""",multiple-slider,18,488778,0.0-4.0-14.0,guen5b2t,agree,12193.6,"""","""","""","{""harmony"":100,""weight"":34,""attractiveness"":100,""beauty"":100}","[2,3,0,1]",100,100,100,34,T060,2021-08-12 18:06
101,1,"""","""","""","""","""",multiple-slider,19,504254,0.0-4.0-15.0,guen5b2t,agree,15462.1,"""","""","""","{""harmony"":0,""attractiveness"":0,""weight"":100,""beauty"":0}","[2,0,3,1]",0,0,0,100,T290,2021-08-12 18:06
101,1,"""","""","""","""","""",multiple-slider,20,517302,0.0-4.0-16.0,guen5b2t,agree,13040.1,"""","""","""","{""attractiveness"":3,""weight"":100,""beauty"":1,""harmony"":0}","[0,3,1,2]",3,1,0,100,T260,2021-08-12 18:06
101,1,"""","""","""","""","""",multiple-slider,21,566361,0.0-4.0-17.0,guen5b2t,agree,49039.5,"""","""","""","{""harmony"":0,""attractiveness"":10,""weight"":0,""beauty"":53}","[2,0,3,1]",10,53,0,0,H210,2021-08-12 18:06
101,1,"""","""","""","""","""",multiple-slider,22,590335,0.0-4.0-18.0,guen5b2t,agree,23965.3,"""","""","""","{""attractiveness"":16,""harmony"":31,""weight"":6,""beauty"":12}","[0,2,3,1]",16,12,31,6,H150,2021-08-12 18:06
101,1,"""","""","""","""","""",multiple-slider,23,613993,0.0-4.0-19.0,guen5b2t,agree,23648.5,"""","""","""","{""harmony"":96,""weight"":58,""attractiveness"":100,""beauty"":100}","[2,3,0,1]",100,100,96,58,T070,2021-08-12 18:06
101,1,"""","""","""","""","""",multiple-slider,24,653853,0.0-4.0-20.0,guen5b2t,agree,39850.1,"""","""","""","{""attractiveness"":62,""beauty"":61,""weight"":18,""harmony"":26}","[0,1,3,2]",62,61,26,18,H130,2021-08-12 18:06
101,1,"""","""","""","""","""",multiple-slider,25,684114,0.0-4.0-21.0,guen5b2t,agree,30243.3,"""","""","""","{""attractiveness"":49,""harmony"":57,""weight"":92,""beauty"":18}","[0,2,3,1]",49,18,57,92,T140,2021-08-12 18:06
101,1,"""","""","""","""","""",multiple-slider,26,707554,0.0-4.0-22.0,guen5b2t,agree,23430.1,"""","""","""","{""weight"":38,""beauty"":44,""harmony"":59,""attractiveness"":51}","[3,1,2,0]",51,44,59,38,H100,2021-08-12 18:06
101,1,"""","""","""","""","""",multiple-slider,27,728168,0.0-4.0-23.0,guen5b2t,agree,20596.9,"""","""","""","{""beauty"":100,""weight"":57,""attractiveness"":100,""harmony"":100}","[1,3,0,2]",100,100,100,57,T010,2021-08-12 18:06
101,1,"""","""","""","""","""",multiple-slider,28,767262,0.0-4.0-24.0,guen5b2t,agree,39086.3,"""","""","""","{""attractiveness"":66,""beauty"":58,""weight"":90,""harmony"":18}","[0,1,3,2]",66,58,18,90,T200,2021-08-12 18:06
101,1,"""","""","""","""","""",multiple-slider,29,798618,0.0-4.0-25.0,guen5b2t,agree,31343,"""","""","""","{""beauty"":0,""attractiveness"":0,""harmony"":0,""weight"":100}","[1,0,2,3]",0,0,0,100,T280,2021-08-12 18:06
101,1,"""","""","""","""","""",multiple-slider,30,819917,0.0-4.0-26.0,guen5b2t,agree,21291.1,"""","""","""","{""harmony"":100,""beauty"":100,""attractiveness"":79,""weight"":61}","[2,1,0,3]",79,100,100,61,H010,2021-08-12 18:06
101,1,"""","""","""","""","""",multiple-slider,31,832958,0.0-4.0-27.0,guen5b2t,agree,13028.5,"""","""","""","{""weight"":100,""attractiveness"":0,""harmony"":0,""beauty"":0}","[3,0,2,1]",0,0,0,100,T270,2021-08-12 18:06
101,1,"""","""","""","""","""",multiple-slider,32,845122,0.0-4.0-28.0,guen5b2t,agree,12155.2,"""","""","""","{""weight"":100,""beauty"":0,""attractiveness"":0,""harmony"":0}","[3,1,0,2]",0,0,0,100,T300,2021-08-12 18:06
101,1,"""","""","""","""","""",multiple-slider,33,863607,0.0-4.0-29.0,guen5b2t,agree,18474.1,"""","""","""","{""beauty"":45,""harmony"":22,""weight"":13,""attractiveness"":25}","[1,2,3,0]",25,45,22,13,H140,2021-08-12 18:06
101,1,"""","""","""","""","""",multiple-slider,34,881518,0.0-4.0-30.0,guen5b2t,agree,17902,"""","""","""","{""beauty"":100,""harmony"":100,""attractiveness"":100,""weight"":67}","[1,2,0,3]",100,100,100,67,T030,2021-08-12 18:06
101,1,"""","""","""","""","""",multiple-slider,35,892654,0.0-4.0-31.0,guen5b2t,agree,11124.5,"""","""","""","{""beauty"":100,""harmony"":100,""attractiveness"":100,""weight"":53}","[1,2,0,3]",100,100,100,53,T020,2021-08-12 18:06
101,1,"""","""","""","""","""",multiple-slider,36,911283,0.0-4.0-32.0,guen5b2t,agree,18619.8,"""","""","""","{""weight"":43,""attractiveness"":90,""harmony"":82,""beauty"":89}","[3,0,2,1]",90,89,82,43,H060,2021-08-12 18:06
101,1,"""","""","""","""","""",multiple-slider,37,941798,0.0-4.0-33.0,guen5b2t,agree,30501.2,"""","""","""","{""weight"":90,""attractiveness"":52,""beauty"":32,""harmony"":55}","[3,0,1,2]",52,32,55,90,T130,2021-08-12 18:06
101,1,"""","""","""","""","""",multiple-slider,38,959950,0.0-4.0-34.0,guen5b2t,agree,18142.3,"""","""","""","{""attractiveness"":92,""weight"":25,""harmony"":86,""beauty"":70}","[0,3,2,1]",92,70,86,25,H080,2021-08-12 18:06
101,1,"""","""","""","""","""",multiple-slider,39,974311,0.0-4.0-35.0,guen5b2t,agree,14345.5,"""","""","""","{""harmony"":100,""weight"":38,""beauty"":100,""attractiveness"":100}","[2,3,1,0]",100,100,100,38,H030,2021-08-12 18:06
101,1,"""","""","""","""","""",multiple-slider,40,1105466,0.0-4.0-36.0,guen5b2t,agree,131145.2,"""","""","""","{""weight"":0,""beauty"":73,""attractiveness"":27,""harmony"":34}","[3,1,0,2]",27,73,34,0,H220,2021-08-12 18:06
101,1,"""","""","""","""","""",multiple-slider,41,1120332,0.0-4.0-37.0,guen5b2t,agree,14851.4,"""","""","""","{""harmony"":28,""weight"":0,""beauty"":39,""attractiveness"":33}","[2,3,1,0]",33,39,28,0,H260,2021-08-12 18:06
101,1,"""","""","""","""","""",multiple-slider,42,1142481,0.0-4.0-38.0,guen5b2t,agree,22140.3,"""","""","""","{""harmony"":32,""attractiveness"":63,""beauty"":46,""weight"":0}","[2,0,1,3]",63,46,32,0,H270,2021-08-12 18:06
101,1,"""","""","""","""","""",multiple-slider,43,1171369,0.0-4.0-39.0,guen5b2t,agree,28873.6,"""","""","""","{""attractiveness"":84,""beauty"":69,""weight"":89,""harmony"":79}","[0,1,3,2]",84,69,79,89,T050,2021-08-12 18:06
101,1,"""","""","""","""","""",multiple-slider,44,1191543,0.0-4.0-40.0,guen5b2t,agree,20165.4,"""","""","""","{""harmony"":43,""attractiveness"":54,""beauty"":86,""weight"":23}","[2,0,1,3]",54,86,43,23,H200,2021-08-12 18:06
101,1,"""","""","""","""","""",multiple-slider,45,1225419,0.0-4.0-41.0,guen5b2t,agree,33861.8,"""","""","""","{""harmony"":31,""attractiveness"":45,""weight"":58,""beauty"":26}","[2,0,3,1]",45,26,31,58,T180,2021-08-12 18:06
101,1,"""","""","""","""","""",multiple-slider,46,1234341,0.0-4.0-42.0,guen5b2t,agree,8911.7,"""","""","""","{""attractiveness"":76,""weight"":83,""harmony"":91,""beauty"":82}","[0,3,2,1]",76,82,91,83,T090,2021-08-12 18:06
101,1,"""","""","""","""","""",multiple-slider,47,1245513,0.0-4.0-43.0,guen5b2t,agree,11159.4,"""","""","""","{""harmony"":100,""weight"":55,""beauty"":100,""attractiveness"":100}","[2,3,1,0]",100,100,100,55,N000,2021-08-12 18:06
101,1,"""","""","""","""","""",multiple-slider,48,1260937,0.0-4.0-44.0,guen5b2t,agree,15411,"""","""","""","{""weight"":11,""harmony"":57,""beauty"":61,""attractiveness"":29}","[3,2,1,0]",29,61,57,11,H190,2021-08-12 18:06
101,1,"""","""","""","""","""",multiple-slider,49,1303753,0.0-4.0-45.0,guen5b2t,agree,42799.8,"""","""","""","{""attractiveness"":63,""weight"":38,""harmony"":81,""beauty"":57}","[0,3,2,1]",63,57,81,38,H090,2021-08-12 18:06
101,1,"""","""","""","""","""",multiple-slider,50,1317022,0.0-4.0-46.0,guen5b2t,agree,13259.7,"""","""","""","{""attractiveness"":100,""beauty"":99,""weight"":65,""harmony"":96}","[0,1,3,2]",100,99,96,65,T040,2021-08-12 18:06
101,1,"""","""","""","""","""",multiple-slider,51,1331315,0.0-4.0-47.0,guen5b2t,agree,14281,"""","""","""","{""weight"":3,""attractiveness"":30,""beauty"":30,""harmony"":20}","[3,0,1,2]",30,30,20,3,H240,2021-08-12 18:06
101,1,"""","""","""","""","""",multiple-slider,52,1343243,0.0-4.0-48.0,guen5b2t,agree,11918.2,"""","""","""","{""weight"":42,""attractiveness"":37,""beauty"":46,""harmony"":24}","[3,0,1,2]",37,46,24,42,H160,2021-08-12 18:06
101,1,"""","""","""","""","""",multiple-slider,53,1353131,0.0-4.0-49.0,guen5b2t,agree,9874.3,"""","""","""","{""beauty"":100,""harmony"":100,""weight"":63,""attractiveness"":100}","[1,2,3,0]",100,100,100,63,T080,2021-08-12 18:06
101,1,"""","""","""","""","""",multiple-slider,54,1368394,0.0-4.0-50.0,guen5b2t,agree,15249.9,"""","""","""","{""harmony"":0,""weight"":0,""attractiveness"":1,""beauty"":2}","[2,3,0,1]",1,2,0,0,H300,2021-08-12 18:06
101,1,"""","""","""","""","""",multiple-slider,55,1381269,0.0-4.0-51.0,guen5b2t,agree,12858.3,"""","""","""","{""harmony"":41,""beauty"":44,""attractiveness"":38,""weight"":11}","[2,1,0,3]",38,44,41,11,H180,2021-08-12 18:06
101,1,"""","""","""","""","""",multiple-slider,56,1392262,0.0-4.0-52.0,guen5b2t,agree,10983.9,"""","""","""","{""weight"":100,""attractiveness"":2,""beauty"":0,""harmony"":4}","[3,0,1,2]",2,0,4,100,T220,2021-08-12 18:06
101,1,"""","""","""","""","""",multiple-slider,57,1407820,0.0-4.0-53.0,guen5b2t,agree,15544.1,"""","""","""","{""beauty"":3,""harmony"":0,""weight"":100,""attractiveness"":3}","[1,2,3,0]",3,3,0,100,T250,2021-08-12 18:06
101,1,"""","""","""","""","""",multiple-slider,58,1422307,0.0-4.0-54.0,guen5b2t,agree,14476.5,"""","""","""","{""beauty"":90,""attractiveness"":93,""harmony"":100,""weight"":84}","[1,0,2,3]",93,90,100,84,T110,2021-08-12 18:06
101,1,"""","""","""","""","""",multiple-slider,59,1436598,0.0-4.0-55.0,guen5b2t,agree,14272.5,"""","""","""","{""weight"":95,""beauty"":68,""harmony"":81,""attractiveness"":63}","[3,1,2,0]",63,68,81,95,T150,2021-08-12 18:06
101,1,"""","""","""","""","""",multiple-slider,60,1457585,0.0-4.0-56.0,guen5b2t,agree,20976.8,"""","""","""","{""harmony"":85,""weight"":90,""beauty"":8,""attractiveness"":80}","[2,3,1,0]",80,8,85,90,T160,2021-08-12 18:06
101,1,"""","""","""","""","""",multiple-slider,61,1489466,0.0-4.0-57.0,guen5b2t,agree,31865.8,"""","""","""","{""beauty"":11,""harmony"":40,""weight"":8,""attractiveness"":78}","[1,2,3,0]",78,11,40,8,H120,2021-08-12 18:06
101,1,"""","""","""","""","""",multiple-slider,62,1502878,0.0-4.0-58.0,guen5b2t,agree,13410,"""","""","""","{""weight"":0,""harmony"":11,""attractiveness"":3,""beauty"":8}","[3,2,0,1]",3,8,11,0,H290,2021-08-12 18:06
101,1,"""","""","""","""","""",multiple-slider,63,1511554,0.0-4.0-59.0,guen5b2t,agree,8658.8,"""","""","""","{""beauty"":3,""harmony"":0,""attractiveness"":0,""weight"":0}","[1,2,0,3]",0,3,0,0,H280,2021-08-12 18:06
101,1,"""","""","""","""","""",multiple-slider,64,1523369,0.0-4.0-60.0,guen5b2t,agree,11808.1,"""","""","""","{""attractiveness"":42,""beauty"":54,""harmony"":55,""weight"":100}","[0,1,2,3]",42,54,55,100,T170,2021-08-12 18:06
101,1,"""","""","""","""","""",external-html,65,1553167,0.0-5.0,guen5b2t,agree,26450.6,debriefing.html,"""","""","""","""","""","""","""","""","""",2021-08-12 18:06
11,1,TRUE,FALSE,[],[],[],preload,0,1045,0.0-0.0,ulxte50y,agree,"""","""","""","""","""","""","""","""","""","""","""",2021-08-11 20:41
11,1,"""","""","""","""","""",external-html,1,40943,0.0-1.0,ulxte50y,agree,39706.4,consent.html,"""","""","""","""","""","""","""","""","""",2021-08-11 20:41
11,1,"""","""","""","""","""",survey-text,2,79022,0.0-2.0,ulxte50y,agree,38065.7,"""","{""prolID"":""602dd732fc65e08aa81714b4"",""age"":""22"",""weight"":""190"",""height"":""6.0"",""mh"":""ADHD""}","""","""","""","""","""","""","""","""",2021-08-11 20:41
11,1,"""","""","""","""","""",instructions,3,117660,0.0-3.0,ulxte50y,agree,38635.8,"""","""","[{""page_index"":0,""viewing_time"":2790.400000002235},{""page_index"":1,""viewing_time"":18860.79999999702},{""page_index"":2,""viewing_time"":7747},{""page_index"":3,""viewing_time"":9237}]","""","""","""","""","""","""","""",2021-08-11 20:41
11,1,"""","""","""","""","""",multiple-slider,4,128544,0.0-4.0-0.0,ulxte50y,agree,10881.6,"""","""","""","{""harmony"":28,""attractiveness"":27,""weight"":13,""beauty"":31}","[2,0,3,1]",27,31,28,13,H200,2021-08-11 20:41
11,1,"""","""","""","""","""",multiple-slider,5,138809,0.0-4.0-1.0,ulxte50y,agree,10259.2,"""","""","""","{""harmony"":61,""beauty"":56,""weight"":90,""attractiveness"":65}","[2,1,3,0]",65,56,61,90,T060,2021-08-11 20:41
11,1,"""","""","""","""","""",multiple-slider,6,153367,0.0-4.0-2.0,ulxte50y,agree,14553,"""","""","""","{""attractiveness"":55,""harmony"":42,""beauty"":37,""weight"":97}","[0,2,1,3]",55,37,42,97,T150,2021-08-11 20:41
11,1,"""","""","""","""","""",multiple-slider,7,164610,0.0-4.0-3.0,ulxte50y,agree,11236.8,"""","""","""","{""harmony"":34,""beauty"":19,""attractiveness"":28,""weight"":15}","[2,1,0,3]",28,19,34,15,H140,2021-08-11 20:41
11,1,"""","""","""","""","""",multiple-slider,8,171496,0.0-4.0-4.0,ulxte50y,agree,6881.2,"""","""","""","{""beauty"":41,""harmony"":35,""attractiveness"":30,""weight"":25}","[1,2,0,3]",30,41,35,25,H090,2021-08-11 20:41
11,1,"""","""","""","""","""",multiple-slider,9,178899,0.0-4.0-5.0,ulxte50y,agree,7397.3,"""","""","""","{""weight"":0,""attractiveness"":20,""harmony"":34,""beauty"":14}","[3,0,2,1]",20,14,34,0,H260,2021-08-11 20:41
11,1,"""","""","""","""","""",multiple-slider,10,186748,0.0-4.0-6.0,ulxte50y,agree,7845.4,"""","""","""","{""beauty"":31,""attractiveness"":43,""weight"":96,""harmony"":54}","[1,0,3,2]",43,31,54,96,T140,2021-08-11 20:41
11,1,"""","""","""","""","""",multiple-slider,11,196360,0.0-4.0-7.0,ulxte50y,agree,9606.4,"""","""","""","{""harmony"":25,""attractiveness"":30,""weight"":100,""beauty"":30}","[2,0,3,1]",30,30,25,100,T220,2021-08-11 20:41
11,1,"""","""","""","""","""",multiple-slider,12,221351,0.0-4.0-8.0,ulxte50y,agree,24986.3,"""","""","""","{""beauty"":21,""weight"":16,""harmony"":42,""attractiveness"":34}","[1,3,2,0]",34,21,42,16,H150,2021-08-11 20:41
11,1,"""","""","""","""","""",multiple-slider,13,232185,0.0-4.0-9.0,ulxte50y,agree,10827.8,"""","""","""","{""attractiveness"":69,""harmony"":76,""weight"":62,""beauty"":73}","[0,2,3,1]",69,73,76,62,T010,2021-08-11 20:41
11,1,"""","""","""","""","""",multiple-slider,14,239020,0.0-4.0-10.0,ulxte50y,agree,6830.5,"""","""","""","{""beauty"":33,""harmony"":39,""weight"":88,""attractiveness"":36}","[1,2,3,0]",36,33,39,88,T180,2021-08-11 20:41
11,1,"""","""","""","""","""",multiple-slider,15,246175,0.0-4.0-11.0,ulxte50y,agree,7148.3,"""","""","""","{""beauty"":34,""harmony"":34,""attractiveness"":12,""weight"":0}","[1,2,0,3]",12,34,34,0,H180,2021-08-11 20:41
11,1,"""","""","""","""","""",multiple-slider,16,255718,0.0-4.0-12.0,ulxte50y,agree,9539.4,"""","""","""","{""harmony"":32,""attractiveness"":30,""weight"":19,""beauty"":25}","[2,0,3,1]",30,25,32,19,H100,2021-08-11 20:41
11,1,"""","""","""","""","""",multiple-slider,17,264468,0.0-4.0-13.0,ulxte50y,agree,8743.8,"""","""","""","{""beauty"":79,""attractiveness"":73,""weight"":66,""harmony"":66}","[1,0,3,2]",73,79,66,66,T070,2021-08-11 20:41
11,1,"""","""","""","""","""",multiple-slider,18,269998,0.0-4.0-14.0,ulxte50y,agree,5525.7,"""","""","""","{""weight"":10,""harmony"":31,""attractiveness"":15,""beauty"":35}","[3,2,0,1]",15,35,31,10,H190,2021-08-11 20:41
11,1,"""","""","""","""","""",multiple-slider,19,276296,0.0-4.0-15.0,ulxte50y,agree,6292.5,"""","""","""","{""beauty"":62,""weight"":73,""attractiveness"":55,""harmony"":65}","[1,3,0,2]",55,62,65,73,T100,2021-08-11 20:41
11,1,"""","""","""","""","""",multiple-slider,20,284258,0.0-4.0-16.0,ulxte50y,agree,7957.5,"""","""","""","{""beauty"":21,""attractiveness"":28,""harmony"":42,""weight"":100}","[1,0,2,3]",28,21,42,100,T240,2021-08-11 20:41
11,1,"""","""","""","""","""",multiple-slider,21,289830,0.0-4.0-17.0,ulxte50y,agree,5566.4,"""","""","""","{""weight"":57,""attractiveness"":71,""harmony"":73,""beauty"":71}","[3,0,2,1]",71,71,73,57,T050,2021-08-11 20:41
11,1,"""","""","""","""","""",multiple-slider,22,296234,0.0-4.0-18.0,ulxte50y,agree,6399.6,"""","""","""","{""attractiveness"":78,""beauty"":78,""harmony"":77,""weight"":63}","[0,1,2,3]",78,78,77,63,H010,2021-08-11 20:41
11,1,"""","""","""","""","""",multiple-slider,23,333111,0.0-4.0-19.0,ulxte50y,agree,36870.6,"""","""","""","{""harmony"":33,""attractiveness"":31,""beauty"":30,""weight"":16}","[2,0,1,3]",31,30,33,16,H160,2021-08-11 20:41
11,1,"""","""","""","""","""",multiple-slider,24,344920,0.0-4.0-20.0,ulxte50y,agree,11804.2,"""","""","""","{""harmony"":46,""attractiveness"":46,""beauty"":45,""weight"":82}","[2,0,1,3]",46,45,46,82,T170,2021-08-11 20:41
11,1,"""","""","""","""","""",multiple-slider,25,349845,0.0-4.0-21.0,ulxte50y,agree,4918.2,"""","""","""","{""weight"":0,""beauty"":15,""harmony"":16,""attractiveness"":31}","[3,1,2,0]",31,15,16,0,H250,2021-08-11 20:41
11,1,"""","""","""","""","""",multiple-slider,26,356134,0.0-4.0-22.0,ulxte50y,agree,6284.5,"""","""","""","{""harmony"":9,""attractiveness"":8,""beauty"":7,""weight"":100}","[2,0,1,3]",8,7,9,100,T270,2021-08-11 20:41
11,1,"""","""","""","""","""",multiple-slider,27,368603,0.0-4.0-23.0,ulxte50y,agree,12463.1,"""","""","""","{""beauty"":70,""harmony"":66,""weight"":57,""attractiveness"":72}","[1,2,3,0]",72,70,66,57,H020,2021-08-11 20:41
11,1,"""","""","""","""","""",multiple-slider,28,373259,0.0-4.0-24.0,ulxte50y,agree,4651.4,"""","""","""","{""beauty"":76,""weight"":59,""harmony"":76,""attractiveness"":74}","[1,3,2,0]",74,76,76,59,T040,2021-08-11 20:41
11,1,"""","""","""","""","""",multiple-slider,29,380801,0.0-4.0-25.0,ulxte50y,agree,7536.7,"""","""","""","{""beauty"":0,""harmony"":5,""weight"":100,""attractiveness"":5}","[1,2,3,0]",5,0,5,100,T300,2021-08-11 20:41
11,1,"""","""","""","""","""",multiple-slider,30,387719,0.0-4.0-26.0,ulxte50y,agree,6913.4,"""","""","""","{""weight"":36,""beauty"":44,""harmony"":48,""attractiveness"":57}","[3,1,2,0]",57,44,48,36,H080,2021-08-11 20:41
11,1,"""","""","""","""","""",multiple-slider,31,394971,0.0-4.0-27.0,ulxte50y,agree,7246,"""","""","""","{""weight"":62,""attractiveness"":71,""beauty"":71,""harmony"":71}","[3,0,1,2]",71,71,71,62,T080,2021-08-11 20:41
11,1,"""","""","""","""","""",multiple-slider,32,400085,0.0-4.0-28.0,ulxte50y,agree,5109.3,"""","""","""","{""attractiveness"":56,""weight"":73,""beauty"":70,""harmony"":69}","[0,3,1,2]",56,70,69,73,T020,2021-08-11 20:41
11,1,"""","""","""","""","""",multiple-slider,33,407422,0.0-4.0-29.0,ulxte50y,agree,7331.2,"""","""","""","{""attractiveness"":35,""beauty"":35,""harmony"":40,""weight"":23}","[0,1,2,3]",35,35,40,23,H120,2021-08-11 20:41
11,1,"""","""","""","""","""",multiple-slider,34,416278,0.0-4.0-30.0,ulxte50y,agree,8851.4,"""","""","""","{""harmony"":15,""beauty"":12,""attractiveness"":14,""weight"":96}","[2,1,0,3]",14,12,15,96,T250,2021-08-11 20:41
11,1,"""","""","""","""","""",multiple-slider,35,420533,0.0-4.0-31.0,ulxte50y,agree,4249.2,"""","""","""","{""weight"":100,""harmony"":28,""attractiveness"":31,""beauty"":24}","[3,2,0,1]",31,24,28,100,T280,2021-08-11 20:41
11,1,"""","""","""","""","""",multiple-slider,36,427005,0.0-4.0-32.0,ulxte50y,agree,6468.9,"""","""","""","{""attractiveness"":26,""weight"":7,""harmony"":22,""beauty"":23}","[0,3,2,1]",26,23,22,7,H130,2021-08-11 20:41
11,1,"""","""","""","""","""",multiple-slider,37,435869,0.0-4.0-33.0,ulxte50y,agree,8858.6,"""","""","""","{""harmony"":78,""weight"":72,""beauty"":79,""attractiveness"":79}","[2,3,1,0]",79,79,78,72,T120,2021-08-11 20:41
11,1,"""","""","""","""","""",multiple-slider,38,471721,0.0-4.0-34.0,ulxte50y,agree,35847.4,"""","""","""","{""harmony"":38,""attractiveness"":39,""beauty"":40,""weight"":76}","[2,0,1,3]",39,40,38,76,T210,2021-08-11 20:41
11,1,"""","""","""","""","""",multiple-slider,39,477462,0.0-4.0-35.0,ulxte50y,agree,5735,"""","""","""","{""weight"":51,""harmony"":60,""beauty"":61,""attractiveness"":62}","[3,2,1,0]",62,61,60,51,N000,2021-08-11 20:41
11,1,"""","""","""","""","""",multiple-slider,40,482131,0.0-4.0-36.0,ulxte50y,agree,4663.8,"""","""","""","{""attractiveness"":22,""beauty"":30,""harmony"":20,""weight"":81}","[0,1,2,3]",22,30,20,81,T260,2021-08-11 20:41
11,1,"""","""","""","""","""",multiple-slider,41,490663,0.0-4.0-37.0,ulxte50y,agree,8526.4,"""","""","""","{""weight"":60,""beauty"":74,""attractiveness"":71,""harmony"":75}","[3,1,0,2]",71,74,75,60,T090,2021-08-11 20:41
11,1,"""","""","""","""","""",multiple-slider,42,495390,0.0-4.0-38.0,ulxte50y,agree,4722.1,"""","""","""","{""beauty"":14,""weight"":0,""attractiveness"":22,""harmony"":8}","[1,3,0,2]",22,14,8,0,H210,2021-08-11 20:41
11,1,"""","""","""","""","""",multiple-slider,43,502606,0.0-4.0-39.0,ulxte50y,agree,7210.7,"""","""","""","{""harmony"":48,""beauty"":46,""weight"":42,""attractiveness"":54}","[2,1,3,0]",54,46,48,42,H060,2021-08-11 20:41
11,1,"""","""","""","""","""",multiple-slider,44,508456,0.0-4.0-40.0,ulxte50y,agree,5845.4,"""","""","""","{""weight"":0,""harmony"":6,""attractiveness"":11,""beauty"":10}","[3,2,0,1]",11,10,6,0,H300,2021-08-11 20:41
11,1,"""","""","""","""","""",multiple-slider,45,512248,0.0-4.0-41.0,ulxte50y,agree,3786,"""","""","""","{""weight"":3,""harmony"":9,""beauty"":12,""attractiveness"":13}","[3,2,1,0]",13,12,9,3,H240,2021-08-11 20:41
11,1,"""","""","""","""","""",multiple-slider,46,516817,0.0-4.0-42.0,ulxte50y,agree,4564.8,"""","""","""","{""beauty"":61,""harmony"":63,""attractiveness"":66,""weight"":55}","[1,2,0,3]",66,61,63,55,H040,2021-08-11 20:41
11,1,"""","""","""","""","""",multiple-slider,47,522983,0.0-4.0-43.0,ulxte50y,agree,6160.3,"""","""","""","{""harmony"":73,""weight"":66,""attractiveness"":77,""beauty"":77}","[2,3,0,1]",77,77,73,66,T030,2021-08-11 20:41
11,1,"""","""","""","""","""",multiple-slider,48,527554,0.0-4.0-44.0,ulxte50y,agree,4566.6,"""","""","""","{""weight"":81,""harmony"":39,""attractiveness"":35,""beauty"":34}","[3,2,0,1]",35,34,39,81,T190,2021-08-11 20:41
11,1,"""","""","""","""","""",multiple-slider,49,531392,0.0-4.0-45.0,ulxte50y,agree,3832.3,"""","""","""","{""attractiveness"":23,""beauty"":20,""weight"":7,""harmony"":26}","[0,1,3,2]",23,20,26,7,H280,2021-08-11 20:41
11,1,"""","""","""","""","""",multiple-slider,50,534778,0.0-4.0-46.0,ulxte50y,agree,3381.5,"""","""","""","{""beauty"":19,""attractiveness"":20,""weight"":3,""harmony"":18}","[1,0,3,2]",20,19,18,3,H290,2021-08-11 20:41
11,1,"""","""","""","""","""",multiple-slider,51,540649,0.0-4.0-47.0,ulxte50y,agree,5865.1,"""","""","""","{""beauty"":45,""weight"":74,""attractiveness"":42,""harmony"":41}","[1,3,0,2]",42,45,41,74,T160,2021-08-11 20:41
11,1,"""","""","""","""","""",multiple-slider,52,544948,0.0-4.0-48.0,ulxte50y,agree,4294.7,"""","""","""","{""beauty"":65,""weight"":59,""harmony"":61,""attractiveness"":65}","[1,3,2,0]",65,65,61,59,T130,2021-08-11 20:41
11,1,"""","""","""","""","""",multiple-slider,53,550409,0.0-4.0-49.0,ulxte50y,agree,5455.4,"""","""","""","{""beauty"":63,""weight"":52,""attractiveness"":67,""harmony"":66}","[1,3,0,2]",67,63,66,52,H050,2021-08-11 20:41
11,1,"""","""","""","""","""",multiple-slider,54,556142,0.0-4.0-50.0,ulxte50y,agree,5729.5,"""","""","""","{""beauty"":44,""weight"":68,""attractiveness"":41,""harmony"":40}","[1,3,0,2]",41,44,40,68,T200,2021-08-11 20:41
11,1,"""","""","""","""","""",multiple-slider,55,559716,0.0-4.0-51.0,ulxte50y,agree,3568.4,"""","""","""","{""beauty"":41,""attractiveness"":31,""weight"":80,""harmony"":30}","[1,0,3,2]",31,41,30,80,T290,2021-08-11 20:41
11,1,"""","""","""","""","""",multiple-slider,56,563958,0.0-4.0-52.0,ulxte50y,agree,4237.7,"""","""","""","{""harmony"":39,""attractiveness"":42,""beauty"":39,""weight"":40}","[2,0,1,3]",42,39,39,40,H070,2021-08-11 20:41
11,1,"""","""","""","""","""",multiple-slider,57,567770,0.0-4.0-53.0,ulxte50y,agree,3805.5,"""","""","""","{""attractiveness"":29,""harmony"":31,""weight"":77,""beauty"":33}","[0,2,3,1]",29,33,31,77,T230,2021-08-11 20:41
11,1,"""","""","""","""","""",multiple-slider,58,571810,0.0-4.0-54.0,ulxte50y,agree,4036.5,"""","""","""","{""attractiveness"":22,""beauty"":23,""weight"":13,""harmony"":22}","[0,1,3,2]",22,23,22,13,H170,2021-08-11 20:41
11,1,"""","""","""","""","""",multiple-slider,59,575590,0.0-4.0-55.0,ulxte50y,agree,3773.2,"""","""","""","{""beauty"":53,""harmony"":53,""weight"":48,""attractiveness"":53}","[1,2,3,0]",53,53,53,48,H030,2021-08-11 20:41
11,1,"""","""","""","""","""",multiple-slider,60,580415,0.0-4.0-56.0,ulxte50y,agree,4820.2,"""","""","""","{""weight"":19,""harmony"":21,""attractiveness"":26,""beauty"":22}","[3,2,0,1]",26,22,21,19,H220,2021-08-11 20:41
11,1,"""","""","""","""","""",multiple-slider,61,585571,0.0-4.0-57.0,ulxte50y,agree,5149.3,"""","""","""","{""attractiveness"":61,""beauty"":59,""weight"":60,""harmony"":60}","[0,1,3,2]",61,59,60,60,T110,2021-08-11 20:41
11,1,"""","""","""","""","""",multiple-slider,62,589383,0.0-4.0-58.0,ulxte50y,agree,3807.5,"""","""","""","{""attractiveness"":20,""beauty"":18,""harmony"":17,""weight"":7}","[0,1,2,3]",20,18,17,7,H230,2021-08-11 20:41
11,1,"""","""","""","""","""",multiple-slider,63,592937,0.0-4.0-59.0,ulxte50y,agree,3548.9,"""","""","""","{""weight"":30,""attractiveness"":36,""beauty"":38,""harmony"":39}","[3,0,1,2]",36,38,39,30,H110,2021-08-11 20:41
11,1,"""","""","""","""","""",multiple-slider,64,596071,0.0-4.0-60.0,ulxte50y,agree,3129.5,"""","""","""","{""attractiveness"":18,""beauty"":17,""harmony"":14,""weight"":5}","[0,1,2,3]",18,17,14,5,H270,2021-08-11 20:41
11,1,"""","""","""","""","""",external-html,65,626856,0.0-5.0,ulxte50y,agree,30526.3,debriefing.html,"""","""","""","""","""","""","""","""","""",2021-08-11 20:41
103,1,TRUE,FALSE,[],[],[],preload,0,993,0.0-0.0,u3g4rn7f,agree,"""","""","""","""","""","""","""","""","""","""","""",2021-08-12 18:10
103,1,"""","""","""","""","""",external-html,1,11456,0.0-1.0,u3g4rn7f,agree,10260.4,consent.html,"""","""","""","""","""","""","""","""","""",2021-08-12 18:10
103,1,"""","""","""","""","""",survey-text,2,37883,0.0-2.0,u3g4rn7f,agree,26418.2,"""","{""prolID"":""611300bd536c379ca5311d73"",""age"":""21"",""weight"":""177"",""height"":""6.0"",""mh"":""N/A""}","""","""","""","""","""","""","""","""",2021-08-12 18:10
103,1,"""","""","""","""","""",instructions,3,58478,0.0-3.0,u3g4rn7f,agree,20594.2,"""","""","[{""page_index"":0,""viewing_time"":4243.799999952316},{""page_index"":1,""viewing_time"":4336},{""page_index"":2,""viewing_time"":5698.700000047684},{""page_index"":3,""viewing_time"":6315.099999904633}]","""","""","""","""","""","""","""",2021-08-12 18:10
103,1,"""","""","""","""","""",multiple-slider,4,70416,0.0-4.0-0.0,u3g4rn7f,agree,11935.7,"""","""","""","{""weight"":91,""beauty"":36,""harmony"":16,""attractiveness"":35}","[3,1,2,0]",35,36,16,91,T250,2021-08-12 18:10
103,1,"""","""","""","""","""",multiple-slider,5,85363,0.0-4.0-1.0,u3g4rn7f,agree,14943.6,"""","""","""","{""beauty"":64,""weight"":56,""attractiveness"":65,""harmony"":61}","[1,3,0,2]",65,64,61,56,T010,2021-08-12 18:10
103,1,"""","""","""","""","""",multiple-slider,6,99543,0.0-4.0-2.0,u3g4rn7f,agree,14176.3,"""","""","""","{""weight"":44,""beauty"":48,""harmony"":53,""attractiveness"":52}","[3,1,2,0]",52,48,53,44,H060,2021-08-12 18:10
103,1,"""","""","""","""","""",multiple-slider,7,106588,0.0-4.0-3.0,u3g4rn7f,agree,7041.6,"""","""","""","{""attractiveness"":57,""weight"":57,""beauty"":60,""harmony"":60}","[0,3,1,2]",57,60,60,57,T020,2021-08-12 18:10
103,1,"""","""","""","""","""",multiple-slider,8,118009,0.0-4.0-4.0,u3g4rn7f,agree,11417.7,"""","""","""","{""weight"":40,""attractiveness"":41,""beauty"":35,""harmony"":41}","[3,0,1,2]",41,35,41,40,H080,2021-08-12 18:10
103,1,"""","""","""","""","""",multiple-slider,9,128037,0.0-4.0-5.0,u3g4rn7f,agree,10024.3,"""","""","""","{""harmony"":28,""weight"":89,""attractiveness"":34,""beauty"":38}","[2,3,0,1]",34,38,28,89,T200,2021-08-12 18:10
103,1,"""","""","""","""","""",multiple-slider,10,138936,0.0-4.0-6.0,u3g4rn7f,agree,10895.9,"""","""","""","{""beauty"":66,""weight"":73,""attractiveness"":63,""harmony"":69}","[1,3,0,2]",63,66,69,73,T110,2021-08-12 18:10
103,1,"""","""","""","""","""",multiple-slider,11,148917,0.0-4.0-7.0,u3g4rn7f,agree,9977.2,"""","""","""","{""beauty"":5,""attractiveness"":9,""weight"":3,""harmony"":11}","[1,0,3,2]",9,5,11,3,H270,2021-08-12 18:10
103,1,"""","""","""","""","""",multiple-slider,12,159214,0.0-4.0-8.0,u3g4rn7f,agree,10294.2,"""","""","""","{""harmony"":14,""beauty"":41,""attractiveness"":38,""weight"":89}","[2,1,0,3]",38,41,14,89,T210,2021-08-12 18:10
103,1,"""","""","""","""","""",multiple-slider,13,166077,0.0-4.0-9.0,u3g4rn7f,agree,6858.7,"""","""","""","{""weight"":0,""beauty"":3,""attractiveness"":7,""harmony"":13}","[3,1,0,2]",7,3,13,0,H260,2021-08-12 18:10
103,1,"""","""","""","""","""",multiple-slider,14,175244,0.0-4.0-10.0,u3g4rn7f,agree,9164.5,"""","""","""","{""weight"":76,""attractiveness"":82,""beauty"":79,""harmony"":81}","[3,0,1,2]",82,79,81,76,T080,2021-08-12 18:10
103,1,"""","""","""","""","""",multiple-slider,15,185039,0.0-4.0-11.0,u3g4rn7f,agree,9790.8,"""","""","""","{""harmony"":61,""beauty"":58,""weight"":49,""attractiveness"":53}","[2,1,3,0]",53,58,61,49,H040,2021-08-12 18:10
103,1,"""","""","""","""","""",multiple-slider,16,193665,0.0-4.0-12.0,u3g4rn7f,agree,8623.5,"""","""","""","{""harmony"":77,""weight"":77,""attractiveness"":90,""beauty"":87}","[2,3,0,1]",90,87,77,77,T120,2021-08-12 18:10
103,1,"""","""","""","""","""",multiple-slider,17,201804,0.0-4.0-13.0,u3g4rn7f,agree,8134.6,"""","""","""","{""attractiveness"":14,""harmony"":19,""weight"":3,""beauty"":11}","[0,2,3,1]",14,11,19,3,H220,2021-08-12 18:10
103,1,"""","""","""","""","""",multiple-slider,18,209064,0.0-4.0-14.0,u3g4rn7f,agree,7256.8,"""","""","""","{""harmony"":55,""attractiveness"":61,""beauty"":67,""weight"":50}","[2,0,1,3]",61,67,55,50,H050,2021-08-12 18:10
103,1,"""","""","""","""","""",multiple-slider,19,217324,0.0-4.0-15.0,u3g4rn7f,agree,8256.6,"""","""","""","{""harmony"":71,""beauty"":69,""attractiveness"":79,""weight"":64}","[2,1,0,3]",79,69,71,64,T190,2021-08-12 18:10
103,1,"""","""","""","""","""",multiple-slider,20,228165,0.0-4.0-16.0,u3g4rn7f,agree,10838,"""","""","""","{""harmony"":40,""attractiveness"":43,""weight"":81,""beauty"":48}","[2,0,3,1]",43,48,40,81,T270,2021-08-12 18:10
103,1,"""","""","""","""","""",multiple-slider,21,235278,0.0-4.0-17.0,u3g4rn7f,agree,7109.6,"""","""","""","{""weight"":73,""beauty"":44,""harmony"":39,""attractiveness"":49}","[3,1,2,0]",49,44,39,73,T230,2021-08-12 18:10
103,1,"""","""","""","""","""",multiple-slider,22,243182,0.0-4.0-18.0,u3g4rn7f,agree,7900.1,"""","""","""","{""weight"":8,""harmony"":16,""beauty"":1,""attractiveness"":7}","[3,2,1,0]",7,1,16,8,H190,2021-08-12 18:10
103,1,"""","""","""","""","""",multiple-slider,23,250871,0.0-4.0-19.0,u3g4rn7f,agree,7685.8,"""","""","""","{""weight"":68,""harmony"":35,""attractiveness"":62,""beauty"":69}","[3,2,0,1]",62,69,35,68,T220,2021-08-12 18:10
103,1,"""","""","""","""","""",multiple-slider,24,258376,0.0-4.0-20.0,u3g4rn7f,agree,7502.1,"""","""","""","{""attractiveness"":64,""weight"":65,""beauty"":67,""harmony"":49}","[0,3,1,2]",64,67,49,65,T180,2021-08-12 18:10
103,1,"""","""","""","""","""",multiple-slider,25,265175,0.0-4.0-21.0,u3g4rn7f,agree,6794.9,"""","""","""","{""attractiveness"":8,""beauty"":13,""weight"":5,""harmony"":29}","[0,1,3,2]",8,13,29,5,H230,2021-08-12 18:10
103,1,"""","""","""","""","""",multiple-slider,26,273434,0.0-4.0-22.0,u3g4rn7f,agree,8255.9,"""","""","""","{""harmony"":36,""weight"":20,""beauty"":25,""attractiveness"":28}","[2,3,1,0]",28,25,36,20,H110,2021-08-12 18:10
103,1,"""","""","""","""","""",multiple-slider,27,280869,0.0-4.0-23.0,u3g4rn7f,agree,7431.1,"""","""","""","{""weight"":61,""attractiveness"":67,""harmony"":39,""beauty"":52}","[3,0,2,1]",67,52,39,61,T240,2021-08-12 18:10
103,1,"""","""","""","""","""",multiple-slider,28,290832,0.0-4.0-24.0,u3g4rn7f,agree,9960.4,"""","""","""","{""attractiveness"":69,""beauty"":69,""harmony"":57,""weight"":66}","[0,1,2,3]",69,69,57,66,N000,2021-08-12 18:10
103,1,"""","""","""","""","""",multiple-slider,29,301513,0.0-4.0-25.0,u3g4rn7f,agree,10677,"""","""","""","{""attractiveness"":63,""harmony"":62,""beauty"":70,""weight"":55}","[0,2,1,3]",63,70,62,55,T040,2021-08-12 18:10
103,1,"""","""","""","""","""",multiple-slider,30,307801,0.0-4.0-26.0,u3g4rn7f,agree,6284.9,"""","""","""","{""harmony"":37,""beauty"":45,""attractiveness"":42,""weight"":85}","[2,1,0,3]",42,45,37,85,T280,2021-08-12 18:10
103,1,"""","""","""","""","""",multiple-slider,31,317245,0.0-4.0-27.0,u3g4rn7f,agree,9440.3,"""","""","""","{""weight"":0,""attractiveness"":30,""harmony"":33,""beauty"":23}","[3,0,2,1]",30,23,33,0,H240,2021-08-12 18:10
103,1,"""","""","""","""","""",multiple-slider,32,324990,0.0-4.0-28.0,u3g4rn7f,agree,7742.4,"""","""","""","{""attractiveness"":40,""harmony"":44,""weight"":17,""beauty"":35}","[0,2,3,1]",40,35,44,17,H130,2021-08-12 18:10
103,1,"""","""","""","""","""",multiple-slider,33,338009,0.0-4.0-29.0,u3g4rn7f,agree,13015.7,"""","""","""","{""attractiveness"":66,""weight"":53,""beauty"":71,""harmony"":65}","[0,3,1,2]",66,71,65,53,H020,2021-08-12 18:10
103,1,"""","""","""","""","""",multiple-slider,34,346659,0.0-4.0-30.0,u3g4rn7f,agree,8646.9,"""","""","""","{""weight"":88,""attractiveness"":38,""beauty"":42,""harmony"":44}","[3,0,1,2]",38,42,44,88,T290,2021-08-12 18:10
103,1,"""","""","""","""","""",multiple-slider,35,356480,0.0-4.0-31.0,u3g4rn7f,agree,9816.6,"""","""","""","{""beauty"":68,""attractiveness"":66,""harmony"":55,""weight"":62}","[1,0,2,3]",66,68,55,62,T100,2021-08-12 18:10
103,1,"""","""","""","""","""",multiple-slider,36,362383,0.0-4.0-32.0,u3g4rn7f,agree,5899.6,"""","""","""","{""weight"":15,""beauty"":36,""attractiveness"":39,""harmony"":47}","[3,1,0,2]",39,36,47,15,H140,2021-08-12 18:10
103,1,"""","""","""","""","""",multiple-slider,37,376211,0.0-4.0-33.0,u3g4rn7f,agree,13824.5,"""","""","""","{""weight"":70,""harmony"":54,""attractiveness"":87,""beauty"":79}","[3,2,0,1]",87,79,54,70,T070,2021-08-12 18:10
103,1,"""","""","""","""","""",multiple-slider,38,381445,0.0-4.0-34.0,u3g4rn7f,agree,5231.2,"""","""","""","{""harmony"":39,""weight"":21,""attractiveness"":23,""beauty"":24}","[2,3,0,1]",23,24,39,21,H200,2021-08-12 18:10
103,1,"""","""","""","""","""",multiple-slider,39,388320,0.0-4.0-35.0,u3g4rn7f,agree,6871.7,"""","""","""","{""harmony"":38,""beauty"":28,""attractiveness"":24,""weight"":0}","[2,1,0,3]",24,28,38,0,H280,2021-08-12 18:10
103,1,"""","""","""","""","""",multiple-slider,40,397577,0.0-4.0-36.0,u3g4rn7f,agree,9253.4,"""","""","""","{""beauty"":30,""harmony"":37,""weight"":14,""attractiveness"":35}","[1,2,3,0]",35,30,37,14,H120,2021-08-12 18:10
103,1,"""","""","""","""","""",multiple-slider,41,404887,0.0-4.0-37.0,u3g4rn7f,agree,7305.7,"""","""","""","{""beauty"":26,""weight"":14,""harmony"":44,""attractiveness"":36}","[1,3,2,0]",36,26,44,14,H160,2021-08-12 18:10
103,1,"""","""","""","""","""",multiple-slider,42,421798,0.0-4.0-38.0,u3g4rn7f,agree,16908.7,"""","""","""","{""attractiveness"":56,""harmony"":56,""beauty"":64,""weight"":46}","[0,2,1,3]",56,64,56,46,H070,2021-08-12 18:10
103,1,"""","""","""","""","""",multiple-slider,43,430433,0.0-4.0-39.0,u3g4rn7f,agree,8630.5,"""","""","""","{""beauty"":16,""attractiveness"":19,""harmony"":36,""weight"":18}","[1,0,2,3]",19,16,36,18,H300,2021-08-12 18:10
103,1,"""","""","""","""","""",multiple-slider,44,439887,0.0-4.0-40.0,u3g4rn7f,agree,9450.9,"""","""","""","{""attractiveness"":43,""harmony"":35,""weight"":77,""beauty"":43}","[0,2,3,1]",43,43,35,77,T130,2021-08-12 18:10
103,1,"""","""","""","""","""",multiple-slider,45,451394,0.0-4.0-41.0,u3g4rn7f,agree,11503.2,"""","""","""","{""harmony"":74,""attractiveness"":80,""weight"":72,""beauty"":81}","[2,0,3,1]",80,81,74,72,H010,2021-08-12 18:10
103,1,"""","""","""","""","""",multiple-slider,46,459158,0.0-4.0-42.0,u3g4rn7f,agree,7760.9,"""","""","""","{""beauty"":28,""weight"":35,""attractiveness"":30,""harmony"":39}","[1,3,0,2]",30,28,39,35,H170,2021-08-12 18:10
103,1,"""","""","""","""","""",multiple-slider,47,465472,0.0-4.0-43.0,u3g4rn7f,agree,6310.6,"""","""","""","{""weight"":25,""beauty"":21,""attractiveness"":25,""harmony"":30}","[3,1,0,2]",25,21,30,25,H210,2021-08-12 18:10
103,1,"""","""","""","""","""",multiple-slider,48,479059,0.0-4.0-44.0,u3g4rn7f,agree,13584.1,"""","""","""","{""beauty"":57,""attractiveness"":54,""weight"":67,""harmony"":58}","[1,0,3,2]",54,57,58,67,T160,2021-08-12 18:10
103,1,"""","""","""","""","""",multiple-slider,49,488072,0.0-4.0-45.0,u3g4rn7f,agree,9008.6,"""","""","""","{""beauty"":73,""weight"":80,""harmony"":68,""attractiveness"":82}","[1,3,2,0]",82,73,68,80,T090,2021-08-12 18:10
103,1,"""","""","""","""","""",multiple-slider,50,494358,0.0-4.0-46.0,u3g4rn7f,agree,6283,"""","""","""","{""beauty"":80,""weight"":79,""harmony"":81,""attractiveness"":81}","[1,3,2,0]",81,80,81,79,T030,2021-08-12 18:10
103,1,"""","""","""","""","""",multiple-slider,51,499479,0.0-4.0-47.0,u3g4rn7f,agree,5118,"""","""","""","{""weight"":68,""harmony"":73,""attractiveness"":73,""beauty"":77}","[3,2,0,1]",73,77,73,68,T060,2021-08-12 18:10
103,1,"""","""","""","""","""",multiple-slider,52,504257,0.0-4.0-48.0,u3g4rn7f,agree,4774.9,"""","""","""","{""beauty"":70,""attractiveness"":75,""harmony"":76,""weight"":75}","[1,0,2,3]",75,70,76,75,T050,2021-08-12 18:10
103,1,"""","""","""","""","""",multiple-slider,53,514471,0.0-4.0-49.0,u3g4rn7f,agree,10210.1,"""","""","""","{""harmony"":34,""attractiveness"":27,""beauty"":13,""weight"":17}","[2,0,1,3]",27,13,34,17,H150,2021-08-12 18:10
103,1,"""","""","""","""","""",multiple-slider,54,521308,0.0-4.0-50.0,u3g4rn7f,agree,6833.7,"""","""","""","{""attractiveness"":60,""harmony"":58,""weight"":66,""beauty"":56}","[0,2,3,1]",60,56,58,66,T150,2021-08-12 18:10
103,1,"""","""","""","""","""",multiple-slider,55,528037,0.0-4.0-51.0,u3g4rn7f,agree,6725.2,"""","""","""","{""harmony"":45,""attractiveness"":42,""beauty"":44,""weight"":92}","[2,0,1,3]",42,44,45,92,T260,2021-08-12 18:10
103,1,"""","""","""","""","""",multiple-slider,56,537095,0.0-4.0-52.0,u3g4rn7f,agree,9055.4,"""","""","""","{""beauty"":69,""weight"":55,""harmony"":84,""attractiveness"":68}","[1,3,2,0]",68,69,84,55,H030,2021-08-12 18:10
103,1,"""","""","""","""","""",multiple-slider,57,545483,0.0-4.0-53.0,u3g4rn7f,agree,8383.6,"""","""","""","{""beauty"":17,""attractiveness"":24,""weight"":4,""harmony"":38}","[1,0,3,2]",24,17,38,4,H290,2021-08-12 18:10
103,1,"""","""","""","""","""",multiple-slider,58,552840,0.0-4.0-54.0,u3g4rn7f,agree,7353.7,"""","""","""","{""weight"":10,""attractiveness"":39,""beauty"":33,""harmony"":40}","[3,0,1,2]",39,33,40,10,H180,2021-08-12 18:10
103,1,"""","""","""","""","""",multiple-slider,59,560957,0.0-4.0-55.0,u3g4rn7f,agree,8114,"""","""","""","{""beauty"":14,""weight"":99,""attractiveness"":27,""harmony"":13}","[1,3,0,2]",27,14,13,99,T300,2021-08-12 18:10
103,1,"""","""","""","""","""",multiple-slider,60,571074,0.0-4.0-56.0,u3g4rn7f,agree,10113.2,"""","""","""","{""weight"":33,""beauty"":41,""harmony"":43,""attractiveness"":47}","[3,1,2,0]",47,41,43,33,H100,2021-08-12 18:10
103,1,"""","""","""","""","""",multiple-slider,61,581184,0.0-4.0-57.0,u3g4rn7f,agree,10106.1,"""","""","""","{""attractiveness"":68,""beauty"":71,""harmony"":60,""weight"":66}","[0,1,2,3]",68,71,60,66,T170,2021-08-12 18:10
103,1,"""","""","""","""","""",multiple-slider,62,589044,0.0-4.0-58.0,u3g4rn7f,agree,7857,"""","""","""","{""harmony"":56,""beauty"":63,""attractiveness"":63,""weight"":47}","[2,1,0,3]",63,63,56,47,H090,2021-08-12 18:10
103,1,"""","""","""","""","""",multiple-slider,63,598008,0.0-4.0-59.0,u3g4rn7f,agree,8960.7,"""","""","""","{""weight"":75,""attractiveness"":66,""harmony"":58,""beauty"":71}","[3,0,2,1]",66,71,58,75,T140,2021-08-12 18:10
103,1,"""","""","""","""","""",multiple-slider,64,604671,0.0-4.0-60.0,u3g4rn7f,agree,6660.1,"""","""","""","{""weight"":8,""harmony"":42,""attractiveness"":9,""beauty"":11}","[3,2,0,1]",9,11,42,8,H250,2021-08-12 18:10
103,1,"""","""","""","""","""",external-html,65,626272,0.0-5.0,u3g4rn7f,agree,21324.1,debriefing.html,"""","""","""","""","""","""","""","""","""",2021-08-12 18:10
104,1,TRUE,FALSE,[],[],[],preload,0,2750,0.0-0.0,s56z83xe,agree,"""","""","""","""","""","""","""","""","""","""","""",2021-08-12 18:22
104,1,"""","""","""","""","""",external-html,1,11492,0.0-1.0,s56z83xe,agree,8483.7,consent.html,"""","""","""","""","""","""","""","""","""",2021-08-12 18:22
104,1,"""","""","""","""","""",survey-text,2,51150,0.0-2.0,s56z83xe,agree,39630,"""","{""prolID"":""6109b4627d97f7a6651a222d"",""age"":""19"",""weight"":""170"",""height"":""5.9"",""mh"":""N/A""}","""","""","""","""","""","""","""","""",2021-08-12 18:22
104,1,"""","""","""","""","""",instructions,3,72367,0.0-3.0,s56z83xe,agree,21212.9,"""","""","[{""page_index"":0,""viewing_time"":3294.2999999970198},{""page_index"":1,""viewing_time"":5040},{""page_index"":2,""viewing_time"":7032.10000000149},{""page_index"":3,""viewing_time"":5844.699999999255}]","""","""","""","""","""","""","""",2021-08-12 18:22
104,1,"""","""","""","""","""",multiple-slider,4,91127,0.0-4.0-0.0,s56z83xe,agree,18753.9,"""","""","""","{""harmony"":56,""beauty"":56,""attractiveness"":56,""weight"":45}","[2,1,0,3]",56,56,56,45,H070,2021-08-12 18:22
104,1,"""","""","""","""","""",multiple-slider,5,106585,0.0-4.0-1.0,s56z83xe,agree,15450,"""","""","""","{""attractiveness"":45,""weight"":45,""harmony"":45,""beauty"":44}","[0,3,2,1]",45,44,45,45,H270,2021-08-12 18:22
104,1,"""","""","""","""","""",multiple-slider,6,114259,0.0-4.0-2.0,s56z83xe,agree,7667.7,"""","""","""","{""attractiveness"":44,""harmony"":44,""beauty"":44,""weight"":44}","[0,2,1,3]",44,44,44,44,H240,2021-08-12 18:22
104,1,"""","""","""","""","""",multiple-slider,7,128298,0.0-4.0-3.0,s56z83xe,agree,14031.8,"""","""","""","{""beauty"":65,""attractiveness"":72,""harmony"":56,""weight"":79}","[1,0,2,3]",72,65,56,79,T030,2021-08-12 18:22
104,1,"""","""","""","""","""",multiple-slider,8,151404,0.0-4.0-4.0,s56z83xe,agree,23100.2,"""","""","""","{""weight"":93,""beauty"":43,""attractiveness"":45,""harmony"":45}","[3,1,0,2]",45,43,45,93,T190,2021-08-12 18:22
104,1,"""","""","""","""","""",multiple-slider,9,167963,0.0-4.0-5.0,s56z83xe,agree,16551.1,"""","""","""","{""beauty"":45,""attractiveness"":46,""harmony"":46,""weight"":40}","[1,0,2,3]",46,45,46,40,H140,2021-08-12 18:22
104,1,"""","""","""","""","""",multiple-slider,10,185315,0.0-4.0-6.0,s56z83xe,agree,17345.5,"""","""","""","{""harmony"":58,""attractiveness"":66,""beauty"":73,""weight"":70}","[2,0,1,3]",66,73,58,70,N000,2021-08-12 18:22
104,1,"""","""","""","""","""",multiple-slider,11,201317,0.0-4.0-7.0,s56z83xe,agree,15994,"""","""","""","{""attractiveness"":44,""beauty"":36,""weight"":37,""harmony"":43}","[0,1,3,2]",44,36,43,37,H170,2021-08-12 18:22
104,1,"""","""","""","""","""",multiple-slider,12,214634,0.0-4.0-8.0,s56z83xe,agree,13310.7,"""","""","""","{""harmony"":42,""beauty"":42,""attractiveness"":43,""weight"":43}","[2,1,0,3]",43,42,42,43,H180,2021-08-12 18:22
104,1,"""","""","""","""","""",multiple-slider,13,227960,0.0-4.0-9.0,s56z83xe,agree,13317.3,"""","""","""","{""attractiveness"":40,""beauty"":38,""weight"":92,""harmony"":30}","[0,1,3,2]",40,38,30,92,T150,2021-08-12 18:22
104,1,"""","""","""","""","""",multiple-slider,14,246461,0.0-4.0-10.0,s56z83xe,agree,18494.1,"""","""","""","{""attractiveness"":54,""beauty"":46,""weight"":45,""harmony"":45}","[0,1,3,2]",54,46,45,45,H110,2021-08-12 18:22
104,1,"""","""","""","""","""",multiple-slider,15,257324,0.0-4.0-11.0,s56z83xe,agree,10853.8,"""","""","""","{""weight"":68,""harmony"":62,""attractiveness"":55,""beauty"":59}","[3,2,0,1]",55,59,62,68,H010,2021-08-12 18:22
104,1,"""","""","""","""","""",multiple-slider,16,268588,0.0-4.0-12.0,s56z83xe,agree,11257.4,"""","""","""","{""weight"":31,""harmony"":39,""beauty"":36,""attractiveness"":41}","[3,2,1,0]",41,36,39,31,H190,2021-08-12 18:22
104,1,"""","""","""","""","""",multiple-slider,17,277189,0.0-4.0-13.0,s56z83xe,agree,8591.8,"""","""","""","{""weight"":86,""beauty"":57,""attractiveness"":53,""harmony"":53}","[3,1,0,2]",53,57,53,86,T050,2021-08-12 18:22
104,1,"""","""","""","""","""",multiple-slider,18,299302,0.0-4.0-14.0,s56z83xe,agree,22106.9,"""","""","""","{""attractiveness"":44,""beauty"":44,""harmony"":44,""weight"":43}","[0,1,2,3]",44,44,44,43,H160,2021-08-12 18:22
104,1,"""","""","""","""","""",multiple-slider,19,307841,0.0-4.0-15.0,s56z83xe,agree,8529.4,"""","""","""","{""attractiveness"":42,""weight"":34,""beauty"":41,""harmony"":49}","[0,3,1,2]",42,41,49,34,H210,2021-08-12 18:22
104,1,"""","""","""","""","""",multiple-slider,20,332252,0.0-4.0-16.0,s56z83xe,agree,24403.6,"""","""","""","{""beauty"":34,""harmony"":22,""weight"":99,""attractiveness"":28}","[1,2,3,0]",28,34,22,99,T290,2021-08-12 18:22
104,1,"""","""","""","""","""",multiple-slider,21,340238,0.0-4.0-17.0,s56z83xe,agree,7976.9,"""","""","""","{""beauty"":69,""harmony"":69,""weight"":83,""attractiveness"":66}","[1,2,3,0]",66,69,69,83,T040,2021-08-12 18:22
104,1,"""","""","""","""","""",multiple-slider,22,355717,0.0-4.0-18.0,s56z83xe,agree,15471.6,"""","""","""","{""harmony"":71,""attractiveness"":70,""weight"":60,""beauty"":61}","[2,0,3,1]",70,61,71,60,H030,2021-08-12 18:22
104,1,"""","""","""","""","""",multiple-slider,23,364134,0.0-4.0-19.0,s56z83xe,agree,8407.4,"""","""","""","{""attractiveness"":70,""harmony"":69,""beauty"":70,""weight"":64}","[0,2,1,3]",70,70,69,64,H050,2021-08-12 18:22
104,1,"""","""","""","""","""",multiple-slider,24,374036,0.0-4.0-20.0,s56z83xe,agree,9895.4,"""","""","""","{""weight"":100,""harmony"":22,""beauty"":29,""attractiveness"":22}","[3,2,1,0]",22,29,22,100,T280,2021-08-12 18:22
104,1,"""","""","""","""","""",multiple-slider,25,386729,0.0-4.0-21.0,s56z83xe,agree,12682,"""","""","""","{""attractiveness"":54,""weight"":37,""harmony"":56,""beauty"":53}","[0,3,2,1]",54,53,56,37,H100,2021-08-12 18:22
104,1,"""","""","""","""","""",multiple-slider,26,397264,0.0-4.0-22.0,s56z83xe,agree,10527.8,"""","""","""","{""attractiveness"":62,""beauty"":59,""weight"":46,""harmony"":61}","[0,1,3,2]",62,59,61,46,H040,2021-08-12 18:22
104,1,"""","""","""","""","""",multiple-slider,27,407808,0.0-4.0-23.0,s56z83xe,agree,10535.2,"""","""","""","{""attractiveness"":47,""beauty"":47,""harmony"":47,""weight"":89}","[0,1,2,3]",47,47,47,89,T130,2021-08-12 18:22
104,1,"""","""","""","""","""",multiple-slider,28,416283,0.0-4.0-24.0,s56z83xe,agree,8467.4,"""","""","""","{""beauty"":60,""weight"":43,""harmony"":60,""attractiveness"":68}","[1,3,2,0]",68,60,60,43,H060,2021-08-12 18:22
104,1,"""","""","""","""","""",multiple-slider,29,425501,0.0-4.0-25.0,s56z83xe,agree,9208.7,"""","""","""","{""weight"":42,""beauty"":59,""harmony"":58,""attractiveness"":61}","[3,1,2,0]",61,59,58,42,H080,2021-08-12 18:22
104,1,"""","""","""","""","""",multiple-slider,30,434538,0.0-4.0-26.0,s56z83xe,agree,9029.7,"""","""","""","{""beauty"":48,""weight"":39,""harmony"":48,""attractiveness"":48}","[1,3,2,0]",48,48,48,39,H130,2021-08-12 18:22
104,1,"""","""","""","""","""",multiple-slider,31,449438,0.0-4.0-27.0,s56z83xe,agree,14890.3,"""","""","""","{""attractiveness"":44,""weight"":95,""beauty"":43,""harmony"":40}","[0,3,1,2]",44,43,40,95,T090,2021-08-12 18:22
104,1,"""","""","""","""","""",multiple-slider,32,459298,0.0-4.0-28.0,s56z83xe,agree,9853.3,"""","""","""","{""attractiveness"":30,""weight"":7,""harmony"":29,""beauty"":23}","[0,3,2,1]",30,23,29,7,H230,2021-08-12 18:22
104,1,"""","""","""","""","""",multiple-slider,33,466687,0.0-4.0-29.0,s56z83xe,agree,7379.8,"""","""","""","{""weight"":97,""beauty"":26,""harmony"":23,""attractiveness"":28}","[3,1,2,0]",28,26,23,97,T200,2021-08-12 18:22
104,1,"""","""","""","""","""",multiple-slider,34,474327,0.0-4.0-30.0,s56z83xe,agree,7633.8,"""","""","""","{""beauty"":23,""harmony"":27,""attractiveness"":27,""weight"":100}","[1,2,0,3]",27,23,27,100,T270,2021-08-12 18:22
104,1,"""","""","""","""","""",multiple-slider,35,487409,0.0-4.0-31.0,s56z83xe,agree,13072.8,"""","""","""","{""attractiveness"":47,""beauty"":47,""harmony"":47,""weight"":79}","[0,1,2,3]",47,47,47,79,T080,2021-08-12 18:22
104,1,"""","""","""","""","""",multiple-slider,36,496957,0.0-4.0-32.0,s56z83xe,agree,9540.8,"""","""","""","{""harmony"":21,""weight"":100,""beauty"":16,""attractiveness"":21}","[2,3,1,0]",21,16,21,100,T300,2021-08-12 18:22
104,1,"""","""","""","""","""",multiple-slider,37,508864,0.0-4.0-33.0,s56z83xe,agree,11897.2,"""","""","""","{""attractiveness"":20,""weight"":5,""harmony"":16,""beauty"":10}","[0,3,2,1]",20,10,16,5,H250,2021-08-12 18:22
104,1,"""","""","""","""","""",multiple-slider,38,516133,0.0-4.0-34.0,s56z83xe,agree,7261.7,"""","""","""","{""weight"":35,""harmony"":46,""beauty"":46,""attractiveness"":45}","[3,2,1,0]",45,46,46,35,H120,2021-08-12 18:22
104,1,"""","""","""","""","""",multiple-slider,39,523261,0.0-4.0-35.0,s56z83xe,agree,7118.5,"""","""","""","{""harmony"":43,""weight"":31,""beauty"":40,""attractiveness"":47}","[2,3,1,0]",47,40,43,31,H200,2021-08-12 18:22
104,1,"""","""","""","""","""",multiple-slider,40,532837,0.0-4.0-36.0,s56z83xe,agree,9569.1,"""","""","""","{""beauty"":32,""attractiveness"":32,""harmony"":35,""weight"":95}","[1,0,2,3]",32,32,35,95,T180,2021-08-12 18:22
104,1,"""","""","""","""","""",multiple-slider,41,540025,0.0-4.0-37.0,s56z83xe,agree,7178.5,"""","""","""","{""attractiveness"":39,""weight"":100,""harmony"":37,""beauty"":37}","[0,3,2,1]",39,37,37,100,T210,2021-08-12 18:22
104,1,"""","""","""","""","""",multiple-slider,42,548667,0.0-4.0-38.0,s56z83xe,agree,8636.5,"""","""","""","{""attractiveness"":61,""beauty"":65,""weight"":86,""harmony"":67}","[0,1,3,2]",61,65,67,86,T020,2021-08-12 18:22
104,1,"""","""","""","""","""",multiple-slider,43,557139,0.0-4.0-39.0,s56z83xe,agree,8462.6,"""","""","""","{""attractiveness"":25,""weight"":2,""harmony"":21,""beauty"":27}","[0,3,2,1]",25,27,21,2,H260,2021-08-12 18:22
104,1,"""","""","""","""","""",multiple-slider,44,571826,0.0-4.0-40.0,s56z83xe,agree,14679.7,"""","""","""","{""weight"":100,""attractiveness"":34,""harmony"":29,""beauty"":27}","[3,0,2,1]",34,27,29,100,T250,2021-08-12 18:22
104,1,"""","""","""","""","""",multiple-slider,45,583449,0.0-4.0-41.0,s56z83xe,agree,11613.5,"""","""","""","{""beauty"":70,""attractiveness"":65,""harmony"":70,""weight"":76}","[1,0,2,3]",65,70,70,76,H020,2021-08-12 18:22
104,1,"""","""","""","""","""",multiple-slider,46,593325,0.0-4.0-42.0,s56z83xe,agree,9869.5,"""","""","""","{""attractiveness"":15,""harmony"":15,""beauty"":12,""weight"":0}","[0,2,1,3]",15,12,15,0,H300,2021-08-12 18:22
104,1,"""","""","""","""","""",multiple-slider,47,609816,0.0-4.0-43.0,s56z83xe,agree,16480,"""","""","""","{""harmony"":46,""weight"":93,""beauty"":52,""attractiveness"":52}","[2,3,1,0]",52,52,46,93,T110,2021-08-12 18:22
104,1,"""","""","""","""","""",multiple-slider,48,675360,0.0-4.0-44.0,s56z83xe,agree,65537.4,"""","""","""","{""harmony"":47,""beauty"":53,""attractiveness"":54,""weight"":93}","[2,1,0,3]",54,53,47,93,T100,2021-08-12 18:22
104,1,"""","""","""","""","""",multiple-slider,49,686513,0.0-4.0-45.0,s56z83xe,agree,11143.7,"""","""","""","{""harmony"":25,""weight"":1,""attractiveness"":24,""beauty"":24}","[2,3,0,1]",24,24,25,1,H290,2021-08-12 18:22
104,1,"""","""","""","""","""",multiple-slider,50,694653,0.0-4.0-46.0,s56z83xe,agree,8132.9,"""","""","""","{""beauty"":54,""weight"":44,""harmony"":52,""attractiveness"":53}","[1,3,2,0]",53,54,52,44,H090,2021-08-12 18:22
104,1,"""","""","""","""","""",multiple-slider,51,706267,0.0-4.0-47.0,s56z83xe,agree,11603.8,"""","""","""","{""weight"":37,""beauty"":48,""harmony"":52,""attractiveness"":48}","[3,1,2,0]",48,48,52,37,H150,2021-08-12 18:22
104,1,"""","""","""","""","""",multiple-slider,52,718543,0.0-4.0-48.0,s56z83xe,agree,12269.1,"""","""","""","{""beauty"":40,""weight"":98,""attractiveness"":41,""harmony"":40}","[1,3,0,2]",41,40,40,98,T170,2021-08-12 18:22
104,1,"""","""","""","""","""",multiple-slider,53,733418,0.0-4.0-49.0,s56z83xe,agree,14864.9,"""","""","""","{""attractiveness"":34,""weight"":1,""harmony"":31,""beauty"":31}","[0,3,2,1]",34,31,31,1,H280,2021-08-12 18:22
104,1,"""","""","""","""","""",multiple-slider,54,746546,0.0-4.0-50.0,s56z83xe,agree,13121.4,"""","""","""","{""weight"":96,""attractiveness"":33,""harmony"":34,""beauty"":30}","[3,0,2,1]",33,30,34,96,T160,2021-08-12 18:22
104,1,"""","""","""","""","""",multiple-slider,55,755088,0.0-4.0-51.0,s56z83xe,agree,8531.6,"""","""","""","{""weight"":100,""beauty"":29,""attractiveness"":28,""harmony"":30}","[3,1,0,2]",28,29,30,100,T240,2021-08-12 18:22
104,1,"""","""","""","""","""",multiple-slider,56,764945,0.0-4.0-52.0,s56z83xe,agree,9850.3,"""","""","""","{""beauty"":40,""harmony"":37,""weight"":100,""attractiveness"":39}","[1,2,3,0]",39,40,37,100,T230,2021-08-12 18:22
104,1,"""","""","""","""","""",multiple-slider,57,772502,0.0-4.0-53.0,s56z83xe,agree,7547.7,"""","""","""","{""harmony"":28,""beauty"":32,""weight"":99,""attractiveness"":28}","[2,1,3,0]",28,32,28,99,T220,2021-08-12 18:22
104,1,"""","""","""","""","""",multiple-slider,58,783874,0.0-4.0-54.0,s56z83xe,agree,11365.2,"""","""","""","{""beauty"":63,""weight"":90,""harmony"":62,""attractiveness"":66}","[1,3,2,0]",66,63,62,90,T010,2021-08-12 18:22
104,1,"""","""","""","""","""",multiple-slider,59,800274,0.0-4.0-55.0,s56z83xe,agree,16390.2,"""","""","""","{""harmony"":44,""beauty"":54,""weight"":92,""attractiveness"":53}","[2,1,3,0]",53,54,44,92,T140,2021-08-12 18:22
104,1,"""","""","""","""","""",multiple-slider,60,807831,0.0-4.0-56.0,s56z83xe,agree,7550.9,"""","""","""","{""weight"":87,""attractiveness"":62,""beauty"":62,""harmony"":66}","[3,0,1,2]",62,62,66,87,T060,2021-08-12 18:22
104,1,"""","""","""","""","""",multiple-slider,61,821541,0.0-4.0-57.0,s56z83xe,agree,13700.4,"""","""","""","{""weight"":87,""harmony"":46,""beauty"":52,""attractiveness"":53}","[3,2,1,0]",53,52,46,87,T120,2021-08-12 18:22
104,1,"""","""","""","""","""",multiple-slider,62,832792,0.0-4.0-58.0,s56z83xe,agree,11243.9,"""","""","""","{""weight"":8,""harmony"":28,""beauty"":24,""attractiveness"":24}","[3,2,1,0]",24,24,28,8,H220,2021-08-12 18:22
104,1,"""","""","""","""","""",multiple-slider,63,843068,0.0-4.0-59.0,s56z83xe,agree,10267.2,"""","""","""","{""attractiveness"":78,""weight"":88,""harmony"":75,""beauty"":88}","[0,3,2,1]",78,88,75,88,T070,2021-08-12 18:22
104,1,"""","""","""","""","""",multiple-slider,64,852392,0.0-4.0-60.0,s56z83xe,agree,9315.7,"""","""","""","{""harmony"":19,""attractiveness"":19,""beauty"":16,""weight"":100}","[2,0,1,3]",19,16,19,100,T260,2021-08-12 18:22
104,1,"""","""","""","""","""",external-html,65,890251,0.0-5.0,s56z83xe,agree,37218.5,debriefing.html,"""","""","""","""","""","""","""","""","""",2021-08-12 18:22
106,1,TRUE,FALSE,[],[],[],preload,0,1462,0.0-0.0,3r0ndj3q,agree,"""","""","""","""","""","""","""","""","""","""","""",2021-08-12 18:23
106,1,"""","""","""","""","""",external-html,1,76179,0.0-1.0,3r0ndj3q,agree,74417.9,consent.html,"""","""","""","""","""","""","""","""","""",2021-08-12 18:23
106,1,"""","""","""","""","""",survey-text,2,158400,0.0-2.0,3r0ndj3q,agree,82213.1,"""","{""prolID"":""610af22dfa5960e4f2164c5a"",""age"":""26"",""weight"":""180"",""height"":""5.11"",""mh"":""N/A""}","""","""","""","""","""","""","""","""",2021-08-12 18:23
106,1,"""","""","""","""","""",instructions,3,185787,0.0-3.0,3r0ndj3q,agree,27384,"""","""","[{""page_index"":0,""viewing_time"":2745.2999999523163},{""page_index"":1,""viewing_time"":6675.700000047684},{""page_index"":2,""viewing_time"":7136.5},{""page_index"":3,""viewing_time"":10826}]","""","""","""","""","""","""","""",2021-08-12 18:23
106,1,"""","""","""","""","""",multiple-slider,4,217145,0.0-4.0-0.0,3r0ndj3q,agree,31356.4,"""","""","""","{""beauty"":39,""harmony"":17,""weight"":19,""attractiveness"":38}","[1,2,3,0]",38,39,17,19,H180,2021-08-12 18:23
106,1,"""","""","""","""","""",multiple-slider,5,235213,0.0-4.0-1.0,3r0ndj3q,agree,18065.2,"""","""","""","{""attractiveness"":74,""beauty"":73,""weight"":91,""harmony"":80}","[0,1,3,2]",74,73,80,91,T090,2021-08-12 18:23
106,1,"""","""","""","""","""",multiple-slider,6,256685,0.0-4.0-2.0,3r0ndj3q,agree,21470.8,"""","""","""","{""harmony"":42,""attractiveness"":30,""beauty"":34,""weight"":100}","[2,0,1,3]",30,34,42,100,T240,2021-08-12 18:23
106,1,"""","""","""","""","""",multiple-slider,7,285998,0.0-4.0-3.0,3r0ndj3q,agree,29310.5,"""","""","""","{""beauty"":75,""weight"":90,""harmony"":81,""attractiveness"":84}","[1,3,2,0]",84,75,81,90,T150,2021-08-12 18:23
106,1,"""","""","""","""","""",multiple-slider,8,314769,0.0-4.0-4.0,3r0ndj3q,agree,28769.5,"""","""","""","{""harmony"":47,""beauty"":45,""weight"":17,""attractiveness"":41}","[2,1,3,0]",41,45,47,17,H190,2021-08-12 18:23
106,1,"""","""","""","""","""",multiple-slider,9,371404,0.0-4.0-5.0,3r0ndj3q,agree,56632.1,"""","""","""","{""weight"":7,""harmony"":33,""beauty"":39,""attractiveness"":36}","[3,2,1,0]",36,39,33,7,H260,2021-08-12 18:23
106,1,"""","""","""","""","""",multiple-slider,10,421417,0.0-4.0-6.0,3r0ndj3q,agree,50008.9,"""","""","""","{""attractiveness"":45,""weight"":36,""beauty"":49,""harmony"":59}","[0,3,1,2]",45,49,59,36,H110,2021-08-12 18:23
106,1,"""","""","""","""","""",multiple-slider,11,438334,0.0-4.0-7.0,3r0ndj3q,agree,16914.5,"""","""","""","{""beauty"":35,""harmony"":29,""attractiveness"":31,""weight"":2}","[1,2,0,3]",31,35,29,2,H280,2021-08-12 18:23
106,1,"""","""","""","""","""",multiple-slider,12,464959,0.0-4.0-8.0,3r0ndj3q,agree,26623.8,"""","""","""","{""harmony"":40,""beauty"":48,""attractiveness"":43,""weight"":40}","[2,1,0,3]",43,48,40,40,H140,2021-08-12 18:23
106,1,"""","""","""","""","""",multiple-slider,13,482543,0.0-4.0-9.0,3r0ndj3q,agree,17581.1,"""","""","""","{""harmony"":25,""beauty"":32,""attractiveness"":28,""weight"":97}","[2,1,0,3]",28,32,25,97,T170,2021-08-12 18:23
106,1,"""","""","""","""","""",multiple-slider,14,504015,0.0-4.0-10.0,3r0ndj3q,agree,21470.4,"""","""","""","{""beauty"":33,""weight"":92,""harmony"":42,""attractiveness"":30}","[1,3,2,0]",30,33,42,92,T190,2021-08-12 18:23
106,1,"""","""","""","""","""",multiple-slider,15,530342,0.0-4.0-11.0,3r0ndj3q,agree,26324.2,"""","""","""","{""harmony"":29,""attractiveness"":39,""weight"":7,""beauty"":29}","[2,0,3,1]",39,29,29,7,H240,2021-08-12 18:23
106,1,"""","""","""","""","""",multiple-slider,16,540970,0.0-4.0-12.0,3r0ndj3q,agree,10627,"""","""","""","{""harmony"":36,""beauty"":33,""weight"":8,""attractiveness"":25}","[2,1,3,0]",25,33,36,8,H300,2021-08-12 18:23
106,1,"""","""","""","""","""",multiple-slider,17,561713,0.0-4.0-13.0,3r0ndj3q,agree,20738.5,"""","""","""","{""beauty"":84,""attractiveness"":78,""weight"":83,""harmony"":83}","[1,0,3,2]",78,84,83,83,H030,2021-08-12 18:23
106,1,"""","""","""","""","""",multiple-slider,18,579556,0.0-4.0-14.0,3r0ndj3q,agree,17841.7,"""","""","""","{""attractiveness"":43,""harmony"":45,""weight"":94,""beauty"":41}","[0,2,3,1]",43,41,45,94,T140,2021-08-12 18:23
106,1,"""","""","""","""","""",multiple-slider,19,597391,0.0-4.0-15.0,3r0ndj3q,agree,17830.9,"""","""","""","{""weight"":100,""harmony"":18,""attractiveness"":32,""beauty"":29}","[3,2,0,1]",32,29,18,100,T290,2021-08-12 18:23
106,1,"""","""","""","""","""",multiple-slider,20,609135,0.0-4.0-16.0,3r0ndj3q,agree,11742.3,"""","""","""","{""attractiveness"":44,""weight"":96,""beauty"":30,""harmony"":37}","[0,3,1,2]",44,30,37,96,T220,2021-08-12 18:23
106,1,"""","""","""","""","""",multiple-slider,21,627102,0.0-4.0-17.0,3r0ndj3q,agree,17965.1,"""","""","""","{""beauty"":82,""weight"":83,""attractiveness"":87,""harmony"":83}","[1,3,0,2]",87,82,83,83,T060,2021-08-12 18:23
106,1,"""","""","""","""","""",multiple-slider,22,652743,0.0-4.0-18.0,3r0ndj3q,agree,25638.9,"""","""","""","{""attractiveness"":69,""weight"":66,""harmony"":61,""beauty"":58}","[0,3,2,1]",69,58,61,66,H050,2021-08-12 18:23
106,1,"""","""","""","""","""",multiple-slider,23,667803,0.0-4.0-19.0,3r0ndj3q,agree,15056,"""","""","""","{""harmony"":46,""beauty"":42,""weight"":91,""attractiveness"":45}","[2,1,3,0]",45,42,46,91,T180,2021-08-12 18:23
106,1,"""","""","""","""","""",multiple-slider,24,678750,0.0-4.0-20.0,3r0ndj3q,agree,10945.4,"""","""","""","{""beauty"":31,""harmony"":32,""attractiveness"":37,""weight"":100}","[1,2,0,3]",37,31,32,100,T250,2021-08-12 18:23
106,1,"""","""","""","""","""",multiple-slider,25,702721,0.0-4.0-21.0,3r0ndj3q,agree,23967,"""","""","""","{""harmony"":44,""attractiveness"":47,""weight"":30,""beauty"":54}","[2,0,3,1]",47,54,44,30,H090,2021-08-12 18:23
106,1,"""","""","""","""","""",multiple-slider,26,720045,0.0-4.0-22.0,3r0ndj3q,agree,17322,"""","""","""","{""harmony"":92,""beauty"":90,""attractiveness"":91,""weight"":90}","[2,1,0,3]",91,90,92,90,T040,2021-08-12 18:23
106,1,"""","""","""","""","""",multiple-slider,27,733686,0.0-4.0-23.0,3r0ndj3q,agree,13639,"""","""","""","{""harmony"":35,""weight"":4,""beauty"":33,""attractiveness"":36}","[2,3,1,0]",36,33,35,4,H200,2021-08-12 18:23
106,1,"""","""","""","""","""",multiple-slider,28,748154,0.0-4.0-24.0,3r0ndj3q,agree,14466.2,"""","""","""","{""beauty"":40,""harmony"":26,""attractiveness"":43,""weight"":96}","[1,2,0,3]",43,40,26,96,T230,2021-08-12 18:23
106,1,"""","""","""","""","""",multiple-slider,29,756944,0.0-4.0-25.0,3r0ndj3q,agree,8787.2,"""","""","""","{""beauty"":86,""weight"":92,""attractiveness"":84,""harmony"":84}","[1,3,0,2]",84,86,84,92,T030,2021-08-12 18:23
106,1,"""","""","""","""","""",multiple-slider,30,770632,0.0-4.0-26.0,3r0ndj3q,agree,13686.9,"""","""","""","{""beauty"":37,""attractiveness"":44,""weight"":95,""harmony"":38}","[1,0,3,2]",44,37,38,95,T210,2021-08-12 18:23
106,1,"""","""","""","""","""",multiple-slider,31,784980,0.0-4.0-27.0,3r0ndj3q,agree,14345.3,"""","""","""","{""attractiveness"":28,""harmony"":33,""beauty"":37,""weight"":2}","[0,2,1,3]",28,37,33,2,H250,2021-08-12 18:23
106,1,"""","""","""","""","""",multiple-slider,32,806548,0.0-4.0-28.0,3r0ndj3q,agree,21566.7,"""","""","""","{""harmony"":88,""weight"":92,""attractiveness"":88,""beauty"":84}","[2,3,0,1]",88,84,88,92,T070,2021-08-12 18:23
106,1,"""","""","""","""","""",multiple-slider,33,826250,0.0-4.0-29.0,3r0ndj3q,agree,19699.3,"""","""","""","{""harmony"":64,""weight"":95,""beauty"":59,""attractiveness"":46}","[2,3,1,0]",46,59,64,95,T130,2021-08-12 18:23
106,1,"""","""","""","""","""",multiple-slider,34,860122,0.0-4.0-30.0,3r0ndj3q,agree,33870.1,"""","""","""","{""beauty"":43,""weight"":18,""attractiveness"":39,""harmony"":47}","[1,3,0,2]",39,43,47,18,H130,2021-08-12 18:23
106,1,"""","""","""","""","""",multiple-slider,35,879921,0.0-4.0-31.0,3r0ndj3q,agree,19797.1,"""","""","""","{""harmony"":41,""beauty"":44,""weight"":17,""attractiveness"":36}","[2,1,3,0]",36,44,41,17,H150,2021-08-12 18:23
106,1,"""","""","""","""","""",multiple-slider,36,896333,0.0-4.0-32.0,3r0ndj3q,agree,16410.1,"""","""","""","{""beauty"":33,""weight"":97,""attractiveness"":44,""harmony"":40}","[1,3,0,2]",44,33,40,97,T160,2021-08-12 18:23
106,1,"""","""","""","""","""",multiple-slider,37,916180,0.0-4.0-33.0,3r0ndj3q,agree,19842.5,"""","""","""","{""weight"":82,""beauty"":65,""attractiveness"":69,""harmony"":64}","[3,1,0,2]",69,65,64,82,H040,2021-08-12 18:23
106,1,"""","""","""","""","""",multiple-slider,38,929510,0.0-4.0-34.0,3r0ndj3q,agree,13328.2,"""","""","""","{""beauty"":89,""harmony"":87,""attractiveness"":88,""weight"":89}","[1,2,0,3]",88,89,87,89,T050,2021-08-12 18:23
106,1,"""","""","""","""","""",multiple-slider,39,945844,0.0-4.0-35.0,3r0ndj3q,agree,16331.5,"""","""","""","{""beauty"":19,""weight"":100,""attractiveness"":20,""harmony"":10}","[1,3,0,2]",20,19,10,100,T280,2021-08-12 18:23
106,1,"""","""","""","""","""",multiple-slider,40,958456,0.0-4.0-36.0,3r0ndj3q,agree,12610.1,"""","""","""","{""attractiveness"":4,""beauty"":7,""weight"":100,""harmony"":3}","[0,1,3,2]",4,7,3,100,T300,2021-08-12 18:23
106,1,"""","""","""","""","""",multiple-slider,41,974555,0.0-4.0-37.0,3r0ndj3q,agree,16096.9,"""","""","""","{""harmony"":44,""beauty"":44,""attractiveness"":45,""weight"":20}","[2,1,0,3]",45,44,44,20,H120,2021-08-12 18:23
106,1,"""","""","""","""","""",multiple-slider,42,993335,0.0-4.0-38.0,3r0ndj3q,agree,18778.4,"""","""","""","{""attractiveness"":22,""weight"":3,""beauty"":34,""harmony"":30}","[0,3,1,2]",22,34,30,3,H290,2021-08-12 18:23
106,1,"""","""","""","""","""",multiple-slider,43,1037687,0.0-4.0-39.0,3r0ndj3q,agree,44349.2,"""","""","""","{""weight"":88,""beauty"":83,""attractiveness"":77,""harmony"":79}","[3,1,0,2]",77,83,79,88,T100,2021-08-12 18:23
106,1,"""","""","""","""","""",multiple-slider,44,1049376,0.0-4.0-40.0,3r0ndj3q,agree,11687.1,"""","""","""","{""weight"":20,""beauty"":38,""harmony"":40,""attractiveness"":39}","[3,1,2,0]",39,38,40,20,H170,2021-08-12 18:23
106,1,"""","""","""","""","""",multiple-slider,45,1063399,0.0-4.0-41.0,3r0ndj3q,agree,14020.4,"""","""","""","{""attractiveness"":35,""beauty"":31,""harmony"":33,""weight"":24}","[0,1,2,3]",35,31,33,24,H160,2021-08-12 18:23
106,1,"""","""","""","""","""",multiple-slider,46,1077219,0.0-4.0-42.0,3r0ndj3q,agree,13818,"""","""","""","{""weight"":42,""attractiveness"":60,""harmony"":57,""beauty"":56}","[3,0,2,1]",60,56,57,42,H070,2021-08-12 18:23
106,1,"""","""","""","""","""",multiple-slider,47,1097998,0.0-4.0-43.0,3r0ndj3q,agree,20777.5,"""","""","""","{""weight"":50,""harmony"":55,""beauty"":54,""attractiveness"":56}","[3,2,1,0]",56,54,55,50,H060,2021-08-12 18:23
106,1,"""","""","""","""","""",multiple-slider,48,1123089,0.0-4.0-44.0,3r0ndj3q,agree,25088.9,"""","""","""","{""harmony"":30,""attractiveness"":22,""weight"":97,""beauty"":38}","[2,0,3,1]",22,38,30,97,T200,2021-08-12 18:23
106,1,"""","""","""","""","""",multiple-slider,49,1150399,0.0-4.0-45.0,3r0ndj3q,agree,27307,"""","""","""","{""harmony"":30,""weight"":15,""attractiveness"":33,""beauty"":22}","[2,3,0,1]",33,22,30,15,H210,2021-08-12 18:23
106,1,"""","""","""","""","""",multiple-slider,50,1158541,0.0-4.0-46.0,3r0ndj3q,agree,8140.2,"""","""","""","{""beauty"":87,""harmony"":87,""weight"":88,""attractiveness"":93}","[1,2,3,0]",93,87,87,88,H020,2021-08-12 18:23
106,1,"""","""","""","""","""",multiple-slider,51,1170063,0.0-4.0-47.0,3r0ndj3q,agree,11519.8,"""","""","""","{""beauty"":54,""harmony"":55,""weight"":60,""attractiveness"":58}","[1,2,3,0]",58,54,55,60,H080,2021-08-12 18:23
106,1,"""","""","""","""","""",multiple-slider,52,1185126,0.0-4.0-48.0,3r0ndj3q,agree,15061.6,"""","""","""","{""weight"":93,""attractiveness"":73,""harmony"":59,""beauty"":63}","[3,0,2,1]",73,63,59,93,T110,2021-08-12 18:23
